Time[s]	Pressure[Pa]	Alt[m]	Acc_x[G]	Acc_y[G]	Acc_z[G]	Gyro_x[º/s]	Gyro_y[º/s]	Gyro_z[º/s]	Temp_bme[*C]	Temp_imu[*C]
1.33	101716.82	-0.12	0.56	-0.38	0.92	72.87	-31.77	24.70	32.74	35.5
1.35	101717.33	-0.12	0.32	-0.74	1.13	176.83	105.98	-9.15	32.74	35.5
1.37	101719.23	-0.28	-0.13	-0.55	1.17	266.52	-42.07	-42.32	32.75	35.3
1.39	101719.23	-0.28	0.82	0.21	1.18	156.22	-57.74	109.33	32.75	35.3
1.41	101722.90	-0.58	0.45	-0.30	0.43	237.26	-33.11	350.30	32.77	35.1
1.43	101722.90	-0.58	0.52	0.11	0.45	364.45	247.07	192.93	32.79	35.3
1.45	101712.25	0.30	0.12	0.16	0.86	314.88	252.26	45.37	32.79	35.3
1.48	101713.09	0.23	0.21	-0.12	1.22	-6.34	243.17	-180.06	32.81	35.3
1.50	101713.09	0.23	0.20	-0.15	1.19	114.63	90.91	56.59	32.81	35.3
1.52	101715.22	0.05	-0.08	0.10	0.97	135.61	52.62	48.35	32.83	35.2
1.54	101715.22	0.05	0.00	0.08	0.98	135.06	71.16	36.77	32.85	35.1
1.56	101716.48	-0.05	-0.04	0.29	0.89	84.82	62.38	42.87	32.85	35.2
1.58	101713.52	0.19	-0.25	0.42	1.11	-7.62	2.01	-23.11	32.85	35.2
1.60	101713.52	0.19	-0.07	0.16	0.94	77.68	-7.07	-24.51	32.85	35.4
1.62	101713.73	0.18	-0.13	0.27	0.90	20.85	94.82	9.51	32.87	35.4
1.65	101713.73	0.18	-0.10	0.31	0.92	40.06	81.10	-41.77	32.89	35.3
1.67	101716.83	-0.08	-0.15	0.23	1.10	39.51	90.98	-40.55	32.89	35.3
1.69	101716.98	-0.09	-0.25	0.27	1.08	25.43	17.13	61.28	32.90	35.1
1.71	101716.98	-0.09	-0.11	0.25	0.94	-38.48	-63.90	92.38	32.90	35.3
1.73	101714.72	0.10	0.00	0.09	1.03	-4.33	-30.00	43.66	32.90	35.5
1.75	101714.72	0.10	-0.06	0.16	1.05	40.00	40.67	2.01	32.90	35.0
1.77	101715.53	0.03	-0.21	0.23	1.14	61.22	105.18	75.67	32.92	35.3
1.79	101715.53	0.03	-0.38	0.31	1.17	75.24	96.83	127.93	32.92	35.3
1.81	101714.84	0.08	-0.28	0.41	0.99	5.98	8.17	69.21	32.92	35.5
1.83	101716.55	-0.06	-0.01	0.24	0.95	-23.17	-27.32	43.66	32.94	35.4
1.85	101716.55	-0.06	0.09	0.26	0.83	18.29	10.85	-13.96	32.94	35.5
1.87	101715.92	-0.01	-0.13	0.22	1.06	21.04	58.96	-84.21	32.95	35.3
1.89	101715.92	-0.01	-0.19	0.19	1.03	79.94	52.07	-90.18	32.95	35.3
1.91	101716.58	-0.06	-0.26	0.42	0.81	62.62	23.35	-60.79	32.96	35.5
1.94	101717.80	-0.16	-0.18	0.30	0.96	4.39	-21.40	-69.21	32.96	35.4
1.96	101717.80	-0.16	-0.18	0.29	0.96	28.11	-20.30	-52.07	32.96	35.4
1.98	101717.97	-0.17	-0.32	0.40	1.04	9.70	-57.44	-14.45	32.97	35.3
2.00	101717.97	-0.17	-0.21	0.28	1.03	-5.00	-35.24	19.82	32.97	35.3
2.02	101716.70	-0.07	-0.19	0.33	0.96	1.04	10.79	-14.21	32.98	35.3
2.04	101716.70	-0.07	-0.21	0.35	0.90	-1.34	47.74	-21.46	32.98	35.3
2.06	101718.78	-0.24	-0.17	0.30	0.95	-9.70	52.38	-5.55	32.98	35.3
2.08	101718.78	-0.16	-0.11	0.23	0.92	3.90	28.05	-1.04	32.99	35.3
2.10	101717.74	-0.16	-0.11	0.25	1.02	-4.15	4.57	-7.80	32.99	35.4
2.12	101718.27	-0.20	-0.20	0.24	1.04	11.22	10.55	-14.27	32.99	35.3
2.14	101718.27	-0.20	-0.23	0.27	0.97	14.82	1.95	-62.44	32.99	35.1
2.16	101718.27	-0.20	-0.20	0.28	0.93	23.29	-0.55	-65.43	33.00	35.5
2.18	101718.27	-0.20	-0.15	0.30	0.92	-1.77	-6.83	-11.65	33.01	35.1
2.20	101716.98	-0.09	-0.06	0.21	1.02	-2.13	-9.76	-12.50	33.01	35.3
2.22	101717.33	-0.12	-0.18	0.30	1.02	-9.51	-50.91	-70.79	33.01	35.4
2.25	101717.33	-0.12	-0.16	0.22	1.00	-7.07	-35.37	-66.04	33.01	35.3
2.27	101715.25	0.05	-0.19	0.21	1.03	7.26	0.67	-66.77	33.01	35.3
2.29	101715.25	0.05	-0.16	0.20	0.93	38.90	39.51	-59.82	33.02	35.4
2.31	101716.12	-0.02	-0.08	0.09	1.06	67.20	95.12	6.52	33.02	35.5
2.33	101718.06	-0.18	-0.21	0.30	1.02	35.06	66.71	18.11	33.03	35.3
2.35	101718.06	-0.18	-0.33	0.23	1.11	47.26	16.28	-34.76	33.03	35.3
2.37	101716.51	-0.05	-0.31	0.32	1.05	65.30	-23.90	-41.40	33.03	35.5
2.39	101716.51	-0.05	-0.13	0.29	0.97	92.44	-36.95	-73.60	33.03	35.4
2.41	101718.66	-0.23	-0.10	0.36	0.90	103.84	21.52	-82.20	33.04	35.3
2.44	101721.44	-0.46	-0.22	0.35	0.86	65.06	65.18	-94.33	33.04	35.3
2.46	101721.44	-0.46	-0.27	0.31	0.94	57.62	108.29	-64.88	33.04	35.4
2.48	101719.53	-0.30	-0.42	0.37	0.94	48.84	106.89	-48.90	33.04	35.1
2.50	101719.53	-0.30	-0.39	0.37	0.92	58.23	77.01	-26.65	33.04	35.5
2.52	101719.11	-0.27	-0.30	0.50	0.88	56.83	54.94	14.63	33.03	35.4
2.54	101719.11	-0.27	-0.28	0.45	0.87	19.02	36.59	22.20	33.04	35.4
2.56	101722.13	-0.52	-0.31	0.43	0.91	10.73	46.40	18.48	33.04	35.3
2.58	101721.72	-0.48	-0.42	0.38	0.88	5.18	76.28	9.63	33.03	35.5
2.60	101721.72	-0.48	-0.48	0.33	0.84	2.93	77.44	-0.67	33.03	35.4
2.62	101720.08	-0.35	-0.40	0.38	0.83	11.77	102.87	17.01	33.03	35.5
2.64	101720.08	-0.35	-0.35	0.37	0.83	-5.73	115.24	8.11	33.03	35.5
2.66	101721.98	-0.51	-0.45	0.29	0.89	10.49	109.76	-29.76	33.03	35.1
2.68	101721.98	-0.51	-0.56	0.42	0.88	10.30	74.09	-23.17	33.01	35.4
2.70	101717.09	-0.10	-0.51	0.44	0.88	5.67	62.80	-7.74	33.01	35.3
2.73	101720.80	-0.41	-0.48	0.45	0.85	37.44	45.06	2.56	33.01	35.3
2.75	101720.80	-0.41	-0.47	0.37	0.68	18.60	50.49	-13.54	33.01	35.5
2.77	101721.50	-0.47	-0.53	0.36	0.80	9.51	86.10	-26.59	33.01	35.4
2.79	101721.50	-0.34	-0.67	0.31	0.73	31.40	88.78	-24.70	32.99	35.1
2.81	101720.00	-0.34	-0.66	0.37	0.73	41.10	70.37	-30.00	32.99	35.3
2.83	101720.86	-0.41	-0.68	0.38	0.72	-3.17	53.54	-24.94	32.99	35.3
2.85	101720.86	-0.41	-0.35	0.37	0.51	-76.59	180.85	2.44	32.99	35.3
2.87	101718.95	-0.26	-0.70	0.35	0.69	-22.80	207.01	12.93	32.98	35.3
2.90	101718.95	-0.53	-1.00	0.25	0.69	1.65	118.41	-20.73	32.98	35.3
2.92	101722.25	-0.53	-0.68	0.45	0.56	-55.91	91.16	-64.57	32.98	35.3
2.94	101719.36	-0.29	-0.57	0.36	0.55	-42.44	163.60	-39.15	32.96	35.4
2.96	101719.36	-0.29	-0.74	0.15	0.47	-40.18	201.71	-51.59	32.96	35.4
2.98	101718.00	-0.18	-1.21	0.21	0.37	-18.41	158.48	-71.04	32.95	35.3
3.00	101718.00	-0.18	-1.19	0.10	0.52	-15.91	88.23	-37.99	32.94	35.4
3.02	101721.92	-0.50	-0.87	0.25	0.56	-5.79	31.28	-33.11	32.94	35.3
3.04	101721.27	-0.45	-0.67	0.31	0.51	-41.22	38.35	-21.89	32.92	35.4
3.07	101721.27	-0.45	-0.81	0.14	0.43	-18.54	40.43	-11.16	32.92	35.5
3.09	101722.20	-0.52	-0.95	0.07	0.45	19.45	6.10	-52.56	32.94	35.5
3.11	101722.20	-0.52	-1.08	0.01	0.40	23.17	-3.90	-33.29	32.94	35.4
3.13	101711.36	0.37	-0.78	0.17	0.37	14.21	0.18	-27.87	32.92	35.1
3.15	101702.72	1.09	-0.81	0.18	0.33	-7.32	60.67	-29.70	32.91	35.3
3.17	101702.72	1.09	-0.83	0.14	0.30	-18.35	88.78	9.15	32.91	35.4
3.19	101698.61	1.43	-0.97	0.10	0.35	-14.21	94.94	-1.52	32.89	35.3
3.21	101698.61	1.43	-1.03	0.03	0.31	6.10	65.24	-19.88	32.89	35.3
3.23	101699.80	1.33	-0.82	0.11	0.21	19.45	81.28	-26.59	32.90	35.5
3.25	101699.80	1.33	-0.75	0.15	0.24	-5.06	106.22	-47.38	32.90	35.4
3.27	101696.91	1.57	-0.92	0.01	0.26	-5.61	105.43	-71.22	32.89	35.3
3.29	101697.61	1.45	-1.10	-0.46	0.01	136.46	79.27	-94.82	32.90	35.3
3.31	101698.41	1.45	-0.70	-0.08	-0.03	-48.90	188.60	36.40	32.90	35.5
3.33	101696.56	1.60	-0.82	0.00	-0.03	15.18	110.06	-45.85	32.91	35.3
3.35	101696.56	1.60	-1.06	0.18	0.08	22.62	92.93	-15.61	32.91	35.6
3.38	101694.48	1.77	-1.14	0.15	0.18	10.61	44.82	6.10	32.91	35.4
3.40	101694.48	1.77	-1.10	0.06	0.14	14.70	20.43	-4.21	32.91	35.3
3.42	101695.35	1.70	-1.15	0.17	0.05	2.44	16.83	-21.59	32.91	35.5
3.44	101694.73	1.75	-0.89	-0.47	0.17	20.30	8.72	59.63	32.91	35.3
3.46	101694.73	1.75	-0.66	-0.18	-0.19	-26.89	-47.07	123.48	32.91	35.5
3.48	101696.39	1.62	-0.78	-0.22	0.07	12.13	-18.78	71.89	32.92	35.5
3.50	101696.39	1.62	-0.84	0.11	-0.01	0.91	3.60	6.59	32.92	35.4
3.52	101695.88	1.66	-0.98	0.12	0.06	-5.67	27.38	-29.88	32.92	35.2
3.54	101696.27	1.63	-1.04	-0.01	0.04	-21.16	24.82	-7.93	32.93	35.3
3.56	101696.27	1.63	-1.08	-0.08	-0.00	-1.22	6.89	-1.71	32.93	35.3
3.59	101693.91	1.82	-0.97	0.07	0.06	7.62	4.57	-33.05	32.93	35.4
3.61	101693.91	1.82	-1.01	-0.06	0.20	14.09	-17.20	-49.21	32.93	35.5
3.63	101695.57	1.68	-1.11	-0.02	-0.04	7.20	-6.22	-13.84	32.93	35.3
3.65	101695.57	1.40	-0.95	0.02	0.03	15.91	-13.11	7.87	32.94	35.3
3.67	101699.01	1.40	-0.83	-0.05	0.08	12.74	-2.99	13.48	32.94	35.1
3.69	101695.02	1.73	-1.08	-0.17	0.05	-5.61	11.22	18.11	32.94	35.1
3.71	101695.02	1.73	-1.12	-0.13	0.02	-9.57	5.00	-22.32	32.95	35.4
3.73	101697.34	1.54	-0.88	0.16	0.12	-11.89	-5.85	-58.66	32.95	35.5
3.76	101696.89	1.57	-0.72	0.27	0.32	4.15	-24.82	-86.65	32.95	35.3
3.78	101696.89	1.57	-1.08	-0.09	0.21	-4.21	-2.93	-40.37	32.95	35.5
3.80	101697.14	1.55	-1.11	-0.41	-0.03	2.68	-63.78	8.78	32.97	35.3
3.82	101697.14	1.55	-0.93	-0.30	0.14	20.73	-6.34	39.70	32.97	35.3
3.85	101697.31	1.54	-0.91	-0.06	0.13	5.91	3.60	20.67	32.97	35.6
3.88	101696.10	1.64	-0.94	-0.12	0.17	0.91	25.06	37.50	32.97	35.3
3.90	101699.34	1.37	-0.94	0.07	0.21	-11.59	31.89	60.79	32.98	35.4
3.92	101699.34	1.37	-0.94	0.03	0.16	-7.32	3.17	69.57	32.98	35.4
3.94	101698.12	1.47	-1.23	0.01	-0.03	-10.30	-4.39	14.88	32.98	35.3
3.97	101698.12	1.47	-1.01	0.11	0.13	-31.28	-4.15	-3.72	32.98	35.1
3.99	101696.39	1.62	-0.96	-0.12	0.10	-36.10	-3.54	-35.49	32.98	35.3
4.01	101697.77	1.50	-0.89	0.16	0.24	-12.93	2.26	-12.87	32.99	35.1
4.04	101697.77	1.50	-0.93	0.00	0.06	-2.99	22.74	1.46	33.00	35.5
4.06	101700.59	1.27	-0.98	0.08	0.09	-5.79	13.84	-8.90	33.00	35.3
4.08	101697.60	1.52	-1.18	-0.04	0.04	-16.95	0.73	37.07	32.99	35.3
4.11	101697.60	1.52	-0.97	0.04	0.10	-20.85	26.22	69.33	32.99	35.5
4.13	101695.73	1.67	-0.85	0.15	0.18	16.16	23.48	-2.74	33.00	35.1
4.15	101694.02	1.81	-1.04	0.00	0.15	20.37	10.00	-14.02	32.99	35.4
4.17	101694.02	1.81	-0.89	-0.07	0.16	54.02	-18.17	-28.66	32.99	35.3
4.20	101694.52	1.77	-0.92	-0.01	0.18	60.98	-17.01	-34.21	33.00	35.5
4.22	101699.97	1.32	-0.93	-0.05	0.14	50.37	-21.65	-27.38	33.02	35.4
4.25	101699.97	1.32	-0.96	-0.17	0.12	27.87	-2.07	9.70	33.02	35.3
4.27	101696.67	1.59	-1.03	0.06	0.14	-7.80	-18.96	43.96	33.01	35.4
4.29	101696.84	1.58	-1.06	0.17	0.18	-35.12	-17.13	27.62	33.02	35.1
4.31	101696.84	1.58	-1.02	0.34	0.19	-59.02	-92.01	-6.16	33.02	35.3
4.34	101696.42	1.61	-1.07	-0.01	0.30	-32.99	-87.44	2.68	33.01	35.4
4.36	101696.42	1.55	-0.53	0.23	0.33	26.46	-70.30	-9.63	33.01	35.1
4.39	101697.12	1.55	-0.95	-0.05	0.38	-21.22	-10.30	2.99	33.01	35.5
4.41	101698.06	1.48	-0.80	0.05	0.35	-3.54	-3.29	-16.34	33.02	35.3
4.43	101695.28	1.71	-0.95	-0.15	0.29	16.28	15.00	16.95	33.02	35.4
4.46	101695.28	1.71	-1.01	-0.04	0.32	30.79	17.80	32.62	33.02	35.3
4.48	101696.91	1.57	-1.03	0.15	0.37	53.41	-22.99	40.79	33.02	35.4
4.50	101696.91	1.57	-0.94	0.16	0.34	53.17	-32.44	53.96	33.02	35.3
4.53	101697.72	1.51	-0.96	-0.12	0.36	17.44	5.98	56.22	33.02	35.1
4.55	101695.11	1.72	-0.96	0.09	0.37	4.51	52.07	57.13	33.02	35.5
4.58	101694.14	1.80	-0.87	0.20	0.09	3.54	24.70	29.94	33.02	35.3
4.60	101694.14	1.80	-0.98	0.34	0.20	36.89	34.27	-30.98	33.02	35.3
4.62	101695.62	1.68	-0.92	0.11	0.18	50.18	19.82	-31.16	33.02	35.4
4.65	101695.62	1.49	-0.90	0.02	0.33	34.39	32.50	-13.60	33.03	35.5
4.67	101697.86	1.49	-0.92	0.09	0.35	45.49	21.95	12.44	33.03	35.2
4.69	101697.86	1.49	-0.85	0.01	0.23	32.62	25.37	27.80	33.03	35.3
4.71	101697.86	1.49	-0.94	0.07	0.39	69.76	20.85	-12.07	33.03	35.2
4.74	101699.31	1.37	-1.05	0.17	0.17	105.49	7.32	-71.16	33.03	35.3
4.76	101699.31	1.37	-0.90	-0.03	0.15	50.43	152.74	0.00	33.03	35.1
4.79	101699.31	1.37	-1.01	0.06	0.14	10.06	56.59	8.66	33.03	35.3
4.81	101696.20	1.63	-0.97	0.24	0.21	19.88	53.23	30.06	33.03	35.5
4.83	101695.42	1.70	-0.89	0.28	0.10	32.44	30.79	-8.05	33.03	35.3
4.86	101695.42	1.70	-0.93	0.09	0.15	41.22	-2.87	-30.18	33.03	35.3
4.88	101696.89	1.57	-0.95	0.05	0.19	29.70	-17.32	-18.23	33.03	35.3
4.90	101696.61	1.60	-1.12	0.08	0.25	19.33	5.61	0.73	33.04	35.4
4.93	101696.61	1.60	-0.95	0.11	0.29	-6.16	19.21	10.85	33.04	35.3
4.95	101697.13	1.55	-0.98	0.08	0.22	-2.93	17.56	5.43	33.04	35.2
4.97	101692.12	1.97	-0.98	0.12	0.09	2.13	14.57	18.90	33.03	35.2
5.00	101692.12	1.97	-0.99	0.11	0.15	-14.21	18.84	4.33	33.03	35.5
5.02	101696.51	1.61	-0.94	0.15	0.14	-8.54	20.24	-7.62	33.04	35.1
5.04	101695.57	1.68	-1.08	0.17	0.20	14.33	10.73	-1.52	33.04	35.6
5.07	101695.57	1.68	-1.03	0.17	0.11	19.21	9.94	-5.55	33.04	35.5
5.09	101692.02	1.98	-0.95	0.08	0.11	14.70	11.52	-14.33	33.03	35.5
5.12	101695.57	1.68	-0.96	0.09	0.13	20.06	7.38	-5.06	33.04	35.0
5.14	101695.57	1.68	-0.99	-0.00	0.16	19.63	2.56	-5.49	33.04	35.2
5.16	101697.30	1.54	-1.06	0.11	0.18	7.50	10.55	-3.41	33.04	35.3
5.18	101694.95	1.73	-0.93	0.07	0.14	3.41	27.87	-2.01	33.04	35.5
5.21	101694.95	1.73	-0.85	0.14	0.16	15.61	9.70	-21.65	33.04	35.2
5.23	101694.73	1.75	-0.88	0.11	0.20	23.48	14.21	-10.67	33.03	35.4
5.25	101694.73	1.75	-0.89	-0.05	0.24	20.00	-4.63	-2.80	33.04	35.2
5.28	101694.00	1.81	-0.96	0.10	0.09	17.80	6.59	8.72	33.04	35.4
5.30	101697.66	1.51	-0.99	0.17	0.10	18.23	9.09	21.04	33.04	35.3
5.32	101697.66	1.51	-1.02	0.09	0.17	32.44	7.62	7.07	33.04	35.3
5.34	101698.42	1.45	-0.83	0.19	0.14	37.38	-9.02	-10.43	33.04	35.4
5.36	101698.42	1.45	-0.97	0.05	0.16	26.46	-16.10	-20.73	33.04	35.3
5.39	101698.42	1.45	-0.95	0.11	0.18	29.33	-17.74	-12.62	33.04	35.3
5.41	101695.60	1.68	-0.98	0.02	0.18	17.38	-17.32	-7.38	33.03	35.1
5.43	101695.60	1.68	-0.98	0.04	0.26	13.78	-5.37	4.57	33.04	35.3
5.46	101699.56	1.35	-1.00	0.01	0.22	12.44	-3.66	11.46	33.04	35.3
5.48	101698.13	1.47	-0.95	0.08	0.18	13.72	0.18	17.20	33.02	35.2
5.50	101698.13	1.50	-0.89	0.10	0.18	14.94	0.37	16.65	33.03	35.3
5.53	101697.75	1.50	-0.82	0.14	0.24	25.30	-19.82	9.45	33.03	35.4
5.55	101698.97	1.40	-1.10	0.06	0.22	21.95	-17.01	5.18	33.03	35.5
5.57	101698.97	1.40	-0.97	0.10	0.16	5.12	17.99	16.04	33.04	35.3
5.60	101701.89	1.16	-1.00	0.10	0.22	12.32	0.43	15.55	33.04	35.1
5.62	101699.31	1.37	-0.89	0.06	0.21	14.39	-8.29	6.59	33.03	35.1
5.64	101699.31	1.37	-1.01	0.10	0.23	6.83	11.28	15.91	33.03	35.4
5.67	101696.98	1.57	-0.79	0.07	0.21	3.29	8.54	13.48	33.03	35.3
5.69	101698.03	1.48	-0.98	0.01	0.25	-1.95	5.12	15.61	33.03	35.1
5.71	101698.03	1.48	-0.93	0.12	0.21	13.17	-1.04	31.10	33.04	35.3
5.74	101698.34	1.45	-0.95	0.11	0.21	17.38	0.24	30.98	33.04	35.4
5.76	101697.66	1.51	-1.01	0.19	0.25	6.34	-12.20	29.57	33.04	35.2
5.78	101697.66	1.51	-0.98	0.31	0.27	6.28	-3.35	8.60	33.04	35.3
5.81	101695.50	1.69	-0.77	0.24	0.39	27.01	17.13	-37.80	33.03	35.3
5.83	101695.95	1.65	-1.05	0.20	0.30	24.88	23.54	-22.93	33.03	35.4
5.86	101695.95	1.65	-1.02	0.22	0.02	10.98	6.28	-9.76	33.03	35.5
5.88	101696.12	1.64	-1.01	0.11	0.20	9.70	1.34	-12.99	33.03	35.2
5.90	101696.57	1.60	-0.88	0.02	0.27	6.52	-12.56	15.55	33.02	35.1
5.92	101696.57	1.60	-0.96	0.10	0.38	8.11	-16.40	12.50	33.02	35.3
5.95	101695.38	1.70	-0.99	0.19	0.32	18.60	18.72	0.85	33.01	35.0
5.97	101699.94	1.32	-0.99	0.11	0.37	14.33	25.00	12.13	33.03	35.1
6.00	101699.94	1.32	-0.87	0.14	0.26	16.52	16.71	17.74	33.03	35.4
6.02	101697.19	1.55	-1.00	0.21	0.22	14.63	2.13	4.70	33.02	35.4
6.04	101697.81	1.50	-1.02	0.10	0.29	19.21	4.09	12.32	33.01	35.4
6.07	101697.81	1.50	-0.98	0.16	0.30	25.00	8.72	6.40	33.01	35.3
6.09	101698.41	1.45	-0.86	0.25	0.25	26.77	6.40	9.45	33.01	35.0
6.11	101697.37	1.53	-0.96	0.23	0.26	17.44	12.56	1.28	33.01	35.3
6.13	101697.37	1.53	-0.97	0.22	0.28	14.76	7.68	-9.70	33.01	35.1
6.16	101695.94	1.65	-0.87	0.16	0.25	8.48	2.07	-13.05	32.99	35.4
6.18	101695.34	1.70	-0.83	0.09	0.30	-1.40	12.62	6.77	32.99	35.4
6.21	101695.34	1.70	-0.91	0.13	0.25	17.80	14.09	12.32	32.99	35.3
6.23	101697.25	1.54	-0.79	-0.00	0.21	12.68	-0.85	10.06	33.00	35.2
6.25	101699.86	1.33	-0.98	0.18	0.16	20.12	9.76	21.65	33.00	34.9
6.28	101699.86	1.33	-1.00	0.25	0.19	16.46	1.71	13.35	33.00	35.2
6.30	101694.83	1.74	-0.95	0.15	0.28	12.01	8.96	2.74	32.99	35.1
6.32	101694.83	1.74	-0.92	0.16	0.32	-1.04	26.40	-2.32	32.98	35.3
6.35	101693.53	1.85	-0.96	0.16	0.24	-3.17	35.61	-7.20	32.98	35.3
6.37	101691.28	2.04	-1.01	0.13	0.14	6.04	43.23	6.65	32.98	35.0
6.40	101687.28	2.37	-0.91	0.23	0.21	18.60	38.05	3.66	32.98	35.3
6.42	101687.28	2.37	-0.97	0.20	0.18	21.04	12.07	-3.54	32.98	35.2
6.44	101686.97	2.40	-0.98	0.17	0.23	7.74	12.62	-5.00	32.97	35.1
6.46	101686.97	2.40	-0.96	0.16	0.29	6.95	26.65	1.52	32.98	35.3
6.49	101691.52	2.02	-0.89	0.14	0.20	9.39	44.88	25.30	32.98	35.1
6.51	101693.25	1.88	-0.96	0.13	0.30	19.63	47.80	42.68	32.96	35.1
6.54	101693.25	1.88	-0.88	0.15	0.26	34.94	19.82	29.63	32.97	35.3
6.56	101697.14	1.55	-0.99	0.23	0.10	32.62	12.38	16.22	32.97	35.1
6.58	101695.09	1.72	-0.97	0.22	0.06	9.09	15.18	-5.30	32.95	35.3
6.61	101695.09	1.72	-0.94	0.27	0.13	7.20	-1.95	-11.34	32.95	35.3
6.63	101697.52	1.52	-0.93	0.20	0.15	5.49	-4.51	-10.91	32.95	35.2
6.66	101698.24	1.46	-1.02	0.10	0.24	11.40	7.01	-12.13	32.94	35.1
6.68	101698.24	1.46	-0.90	0.19	0.24	30.79	1.77	-2.93	32.93	35.2
6.70	101697.72	1.51	-0.91	0.09	0.26	37.68	-1.34	-3.96	32.93	35.1
6.72	101699.52	1.36	-0.90	0.21	0.27	47.26	-0.49	10.24	32.92	35.3
6.76	101701.55	1.19	-1.10	0.15	0.09	39.82	1.83	33.54	32.93	35.3
6.78	101701.55	1.19	-0.77	0.28	0.25	43.29	6.28	4.45	32.93	35.3
6.80	101694.23	1.79	-0.95	0.36	0.07	10.91	1.40	-3.23	32.90	35.0
6.83	101692.58	1.93	-0.98	0.31	0.11	0.30	5.18	-20.98	32.91	35.0
6.85	101692.58	1.93	-0.96	0.34	0.14	-7.01	-6.89	-51.65	32.91	35.3
6.87	101689.91	2.15	-0.86	0.17	0.28	-32.87	-25.43	-65.61	32.90	34.9
6.89	101689.91	2.15	-0.98	-0.05	0.47	-16.52	6.46	-42.01	32.90	35.0
6.92	101693.02	1.89	-0.89	-0.27	0.06	8.23	33.66	-24.88	32.90	35.0
6.94	101695.52	1.69	-0.92	0.01	0.14	-3.05	47.20	29.09	32.89	35.3
6.96	101695.52	1.69	-1.13	0.27	0.09	54.51	64.57	94.21	32.89	34.9
6.99	101695.31	1.71	-1.07	-0.02	0.03	16.04	37.74	49.51	32.89	35.1
7.01	101697.22	1.55	-0.86	0.34	0.09	7.50	42.62	20.61	32.89	35.0
7.03	101697.22	1.55	-0.97	0.14	0.13	42.20	31.22	-2.07	32.89	35.0
7.06	101696.98	1.57	-0.97	0.06	0.15	-11.46	18.66	18.23	32.88	35.0
7.08	101696.38	1.62	-0.99	0.13	0.16	-17.50	31.71	39.51	32.87	35.1
7.10	101696.38	1.62	-0.97	0.23	0.12	-16.71	32.20	57.68	32.87	35.0
7.13	101697.08	1.56	-0.87	0.41	0.04	-9.15	14.94	19.94	32.87	35.0
7.15	101695.12	1.72	-0.96	0.41	0.06	24.51	20.06	15.73	32.86	35.1
7.18	101695.12	1.72	-0.98	0.24	0.07	26.04	13.72	5.43	32.86	35.1
7.20	101694.88	1.74	-0.95	0.17	0.11	20.85	13.60	1.59	32.85	35.0
7.22	101695.58	1.68	-1.03	0.20	0.12	14.45	21.22	5.98	32.85	35.0
7.25	101695.58	1.68	-0.93	0.20	0.12	9.82	30.98	13.96	32.85	35.1
7.27	101695.64	1.68	-0.97	0.24	0.09	9.88	29.63	22.87	32.84	35.1
7.30	101696.86	1.58	-0.93	0.34	0.04	7.32	24.63	28.78	32.84	35.1
7.32	101696.86	1.58	-0.99	0.33	0.04	21.95	22.80	24.63	32.85	34.9
7.34	101696.52	1.61	-0.93	0.32	0.04	22.50	19.21	28.05	32.85	35.1
7.37	101692.75	1.92	-0.94	0.35	0.01	25.67	19.21	9.02	32.83	35.2
7.39	101692.75	1.92	-1.03	0.36	-0.06	25.12	15.12	19.15	32.83	35.1
7.41	101693.34	1.87	-0.95	0.25	0.06	28.35	16.65	13.60	32.84	35.1
7.43	101691.88	1.99	-0.97	0.30	0.02	30.85	18.72	10.30	32.83	35.3
7.46	101691.88	1.99	-1.01	0.33	0.06	25.12	20.43	11.52	32.83	35.1
7.49	101692.83	1.91	-0.90	0.30	0.05	20.67	21.83	20.12	32.83	35.1
7.51	101693.39	1.86	-0.95	0.41	0.02	25.18	21.40	23.84	32.84	35.0
7.53	101693.39	1.86	-0.90	0.34	0.01	18.90	19.02	30.24	32.84	34.9
7.55	101693.62	1.85	-0.97	0.37	-0.00	15.98	18.11	6.89	32.83	35.2
7.58	101693.80	1.83	-0.94	0.42	-0.02	33.41	11.71	10.00	32.83	34.9
7.60	101693.80	1.83	-1.02	0.34	-0.05	26.65	13.90	-1.04	32.83	35.0
7.62	101694.66	1.76	-0.91	0.22	0.04	3.48	24.76	-0.37	32.83	35.2
7.64	101694.66	1.76	-0.94	0.33	-0.03	-0.85	18.96	5.06	32.83	34.9
7.67	101694.84	1.74	-0.94	0.47	0.16	6.71	-19.33	5.24	32.83	35.2
7.69	101695.01	1.73	-0.80	0.35	-0.17	0.18	20.37	23.05	32.83	35.2
7.72	101695.01	1.64	-0.96	0.40	-0.04	9.39	6.71	2.26	32.83	35.1
7.74	101696.05	1.64	-0.99	0.39	-0.04	17.01	12.07	-1.65	32.83	35.0
7.76	101693.10	1.89	-0.90	0.33	-0.01	9.15	11.16	-14.45	32.82	35.0
7.78	101693.10	1.89	-0.99	0.35	-0.00	13.05	11.04	-19.82	32.82	35.1
7.81	101692.93	1.90	-0.95	0.35	0.01	10.61	13.41	-23.17	32.82	35.0
7.83	101695.08	1.72	-0.95	0.36	0.00	10.24	20.61	-30.79	32.83	34.8
7.85	101695.08	1.72	-0.97	0.35	0.05	13.84	26.10	-22.44	32.83	35.3
7.88	101696.92	1.57	-0.99	0.30	-0.00	6.59	37.07	-23.05	32.83	34.9
7.90	101696.81	1.58	-0.97	0.33	-0.01	-4.82	41.34	-26.40	32.83	34.9
7.92	101696.81	1.58	-0.99	0.30	0.02	-0.91	44.88	-24.21	32.83	35.1
7.95	101695.60	1.68	-0.98	0.26	-0.03	-2.26	53.48	-24.51	32.84	35.3
7.97	101695.53	1.69	-0.92	0.32	-0.08	-17.32	53.54	-32.01	32.83	35.1
7.99	101695.53	1.69	-0.99	0.34	-0.09	-8.35	54.21	-17.62	32.83	34.9
8.02	101695.08	1.72	-0.99	0.19	-0.15	-7.32	68.60	-46.59	32.83	35.0
8.04	101693.45	1.86	-1.04	0.26	-0.17	-20.85	82.56	-34.70	32.83	34.7
8.06	101693.45	1.86	-1.00	0.23	-0.23	-15.06	93.96	-34.21	32.83	34.9
8.08	101693.00	1.90	-1.01	0.30	-0.28	-25.43	86.22	-49.45	32.83	35.0
8.11	101693.00	1.90	-1.06	0.21	-0.28	-37.32	82.20	-63.23	32.83	34.9
8.13	101695.25	1.71	-1.08	0.10	-0.31	-36.83	87.44	-78.29	32.83	34.9
8.15	101694.66	1.76	-1.03	-0.01	-0.36	-45.61	102.56	-61.52	32.83	34.8
8.17	101694.66	1.76	-0.96	0.14	-0.44	-66.16	64.57	-16.04	32.83	35.1
8.20	101694.56	1.77	-1.21	0.28	-0.33	-36.65	104.09	-44.94	32.83	34.8
8.22	101695.70	1.67	-1.03	0.08	-0.51	-5.67	106.16	-69.15	32.82	35.2
8.24	101695.70	1.67	-0.95	0.02	-0.52	-30.91	96.83	-69.45	32.82	35.2
8.27	101696.23	1.63	-1.05	-0.04	-0.49	-36.16	109.33	-44.51	32.83	35.0
8.29	101694.91	1.74	-0.88	0.04	-0.54	-38.72	110.30	-43.11	32.83	35.1
8.31	101694.91	1.74	-0.78	0.15	-0.53	-22.68	94.39	-79.21	32.83	34.9
8.33	101694.56	1.77	-0.87	0.01	-0.60	4.45	87.99	-132.44	32.83	34.9
8.36	101694.56	1.84	-0.85	-0.15	-0.58	-45.43	73.41	-73.66	32.83	35.0
8.38	101693.70	1.84	-0.75	0.01	-0.49	-55.00	94.21	-66.59	32.83	35.1
8.41	101693.10	1.89	-0.77	0.01	-0.50	-44.57	60.30	-85.43	32.82	34.9
8.43	101693.10	1.89	-0.88	-0.08	-0.65	-20.49	87.44	-88.78	32.82	35.1
8.45	101694.66	1.76	-0.79	-0.16	-0.64	-26.10	53.96	-49.27	32.82	35.0
8.47	101694.48	1.77	-0.78	-0.08	-0.68	-22.80	64.45	-65.43	32.82	35.0
8.50	101694.48	1.77	-0.58	-0.06	-0.69	-29.51	52.80	-47.38	32.83	35.0
8.52	101691.95	1.98	-0.77	-0.04	-0.66	-12.44	61.83	-55.12	32.83	35.0
8.55	101694.56	1.77	-0.58	-0.17	-0.70	-2.87	74.15	-67.87	32.83	34.8
8.57	101694.56	1.77	-0.41	-0.14	-0.65	-27.07	68.72	-90.91	32.82	34.9
8.59	101694.84	1.74	-0.68	0.02	-0.62	-8.48	32.50	-84.76	32.82	34.9
8.62	101691.36	2.03	-0.61	-0.13	-0.71	3.48	44.39	-93.17	32.82	35.0
8.64	101691.36	2.03	-0.63	-0.24	-0.77	-11.22	50.61	-73.84	32.82	34.8
8.66	101692.75	1.92	-0.44	-0.16	-0.97	-15.06	67.01	-63.84	32.82	35.0
8.69	101693.97	1.82	-0.44	-0.02	-0.74	-9.63	21.89	-72.38	32.82	35.1
8.71	101693.97	1.82	-0.67	-0.11	-0.78	21.16	60.61	-87.20	32.82	35.0
8.73	101695.70	1.67	-0.46	-0.31	-0.81	4.82	78.60	-71.28	32.82	35.0
8.76	101692.75	1.92	-0.25	-0.18	-0.79	-12.50	51.04	-42.62	32.82	34.9
8.78	101692.75	1.92	-0.23	-0.09	-0.74	-13.11	39.33	-92.80	32.82	34.9
8.80	101692.93	1.90	-0.57	-0.11	-0.78	9.51	45.49	-82.20	32.82	34.9
8.83	101690.35	2.12	-0.05	-0.04	-0.22	31.59	23.72	-81.65	32.81	35.0
8.85	101690.35	2.12	-0.19	-0.15	-0.84	25.67	29.70	-111.40	32.81	34.9
8.88	101691.88	1.99	-0.37	-0.35	-0.84	7.93	8.23	-146.59	32.82	34.7
8.90	101692.41	1.95	-0.52	-0.43	-0.87	-8.60	21.71	-108.29	32.82	34.9
8.92	101692.41	1.95	-0.28	-0.24	-0.82	-17.80	9.02	-30.49	32.82	34.8
8.95	101692.23	1.96	-0.12	-0.02	-0.90	-7.13	24.94	7.80	32.82	34.8
8.97	101692.93	1.90	-0.28	-0.35	-0.79	8.84	45.61	-34.02	32.82	35.0
8.99	101692.93	1.90	-0.51	-0.42	-0.92	-29.94	42.13	4.27	32.82	34.9
9.01	101690.00	2.15	-0.40	0.28	-0.49	10.85	55.06	0.98	32.81	35.0
9.04	101690.00	2.15	-0.20	-0.20	-0.83	-18.29	24.70	-10.55	32.82	35.0
9.06	101691.30	2.04	-0.32	-0.13	-1.07	1.89	37.26	-1.34	32.82	34.9
9.08	101691.27	2.04	-0.22	-0.17	-0.94	4.88	16.22	-10.91	32.83	35.0
9.11	101691.27	1.96	-0.13	-0.16	-0.93	-5.18	12.62	-21.52	32.82	35.0
9.13	101692.23	1.96	-0.10	-0.16	-0.87	-14.21	11.83	-28.35	32.82	34.8
9.15	101688.80	2.25	-0.29	-0.14	-0.93	-12.68	15.61	-26.95	32.81	35.0
9.18	101688.80	2.25	-0.12	-0.16	-0.87	-9.88	16.22	-47.62	32.82	34.8
9.20	101688.34	2.28	-0.26	-0.32	-1.05	-4.21	19.94	-38.72	32.82	35.1
9.23	101692.58	1.93	-0.17	-0.17	-0.91	-11.16	23.05	-2.56	32.82	35.1
9.25	101692.58	1.93	-0.26	-0.31	-0.83	-28.54	30.00	14.57	32.82	34.9
9.27	101690.50	2.10	-0.17	-0.22	-0.98	-18.11	28.05	17.99	32.82	35.0
9.30	101691.71	2.00	-0.20	-0.14	-0.95	-19.88	27.32	7.07	32.82	35.1
9.32	101691.71	2.00	-0.16	-0.04	-0.92	-11.52	16.46	4.09	32.82	35.0
9.35	101690.67	2.09	-0.24	0.02	-1.05	-14.76	9.94	-0.98	32.82	35.1
9.37	101693.80	1.83	-0.20	-0.14	-0.91	-18.84	9.88	3.66	32.82	34.9
9.39	101693.80	1.83	-0.23	-0.09	-0.94	-27.26	7.50	2.80	32.82	35.0
9.41	101691.54	2.02	-0.13	-0.05	-0.93	-31.04	12.13	-4.02	32.82	34.9
9.44	101693.10	1.89	-0.11	-0.14	-0.99	-24.27	10.55	7.26	32.82	34.9
9.46	101693.10	1.89	-0.09	-0.04	-1.02	-7.99	10.49	5.85	32.82	35.0
9.48	101693.27	1.87	-0.16	-0.03	-1.00	-2.20	5.67	0.49	32.82	34.9
9.51	101691.54	2.02	-0.17	-0.04	-0.97	2.74	1.65	4.51	32.82	35.1
9.53	101691.54	2.02	-0.22	-0.05	-0.86	13.84	4.21	5.85	32.82	34.9
9.55	101689.38	2.20	-0.40	-0.05	-0.62	18.84	11.89	2.99	32.82	35.1
9.59	101690.50	2.10	-0.17	0.07	-0.96	10.18	8.05	-2.68	32.82	35.0
9.61	101689.38	2.20	-0.16	-0.03	-0.97	8.96	5.37	-5.61	32.82	35.1
9.63	101689.38	2.20	-0.21	-0.10	-1.00	5.37	3.17	-5.49	32.82	35.1
9.65	101687.58	2.35	-0.05	-0.10	-0.99	22.50	18.23	17.74	32.81	35.0
9.68	101687.58	2.35	-0.17	-0.00	-1.02	15.12	7.99	22.74	32.82	35.1
9.70	101690.95	2.07	-0.16	-0.08	-1.02	9.88	1.34	8.35	32.82	35.1
9.72	101690.70	2.09	-0.21	-0.01	-1.03	15.30	-0.37	8.60	32.81	35.1
9.74	101690.70	2.09	-0.28	-0.02	-1.05	15.67	-3.78	23.78	32.81	34.9
9.77	101692.23	1.96	-0.27	-0.07	-0.96	17.44	-1.83	32.80	32.82	35.1
9.79	101691.22	2.04	-0.39	-0.18	-0.73	10.85	9.57	15.24	32.81	35.1
9.82	101691.22	2.04	-0.16	-0.03	-1.09	14.94	7.50	0.43	32.81	35.1
9.84	101690.70	2.09	-0.17	-0.08	-1.10	20.30	4.51	-1.34	32.81	34.9
9.86	101690.98	2.06	-0.13	-0.13	-1.15	3.05	-7.13	-9.15	32.81	34.9
9.88	101690.98	2.06	-0.17	-0.10	-1.01	0.00	0.61	13.11	32.81	34.7
9.91	101691.98	1.98	-0.14	-0.02	-0.99	0.37	-0.55	28.17	32.82	35.0
9.93	101690.00	2.15	-0.23	-0.02	-0.92	3.84	9.09	14.21	32.81	34.8
9.96	101690.00	2.15	-0.13	-0.06	-0.91	12.13	12.93	14.21	32.81	34.9
9.98	101689.09	2.22	-0.18	-0.02	-0.94	18.84	12.32	10.79	32.80	35.0
10.00	101690.35	2.12	-0.27	-0.03	-0.98	18.05	14.70	-19.27	32.81	35.0
10.03	101690.35	2.12	-0.24	-0.11	-1.00	17.87	15.67	-13.41	32.81	34.8
10.05	101690.04	2.14	-0.16	-0.10	-1.07	17.26	3.35	23.96	32.80	34.7
10.07	101690.04	2.14	-0.17	-0.01	-1.03	10.98	1.71	15.79	32.81	35.0
10.09	101690.45	2.11	-0.24	-0.01	-1.01	11.40	9.33	4.45	32.81	34.9
10.12	101692.19	1.96	-0.24	0.03	-0.90	10.55	15.73	-0.49	32.81	34.9
10.14	101692.95	1.90	-0.10	0.04	-0.96	16.95	17.20	13.29	32.81	34.9
10.17	101692.95	1.90	-0.22	0.08	-0.95	17.26	16.10	-0.98	32.81	35.1
10.19	101691.92	1.99	-0.26	-0.04	-0.97	15.06	15.18	-4.70	32.81	35.1
10.21	101691.92	1.99	-0.21	-0.08	-0.98	15.37	15.79	7.44	32.80	34.9
10.24	101694.03	1.81	-0.20	0.04	-0.93	17.87	15.24	18.29	32.80	34.9
10.26	101692.12	1.97	-0.19	0.03	-0.97	18.90	6.77	17.01	32.80	34.8
10.28	101692.12	1.97	-0.21	-0.05	-0.95	12.99	5.67	1.59	32.80	35.1
10.31	101690.91	2.07	-0.20	-0.02	-0.97	9.33	6.40	-3.78	32.80	35.1
10.33	101692.71	1.92	-0.19	-0.06	-0.99	6.28	5.24	5.00	32.81	34.9
10.35	101692.71	1.92	-0.27	-0.05	-0.98	8.11	6.83	18.41	32.80	34.9
10.38	101690.38	2.11	-0.20	-0.06	-0.94	2.93	15.06	13.17	32.80	35.0
10.40	101692.27	1.96	-0.20	0.01	-0.98	-3.48	14.09	3.35	32.81	35.1
10.42	101692.27	1.96	-0.33	0.17	-0.91	-13.17	11.10	13.23	32.81	34.8
10.45	101693.06	1.89	-0.27	-0.04	-0.96	-8.84	6.52	17.26	32.81	34.8
10.47	101689.69	2.17	-0.24	-0.04	-1.00	-17.32	6.89	12.13	32.80	34.9
10.49	101689.69	2.17	-0.13	-0.04	-0.96	-21.83	-3.84	19.21	32.80	35.0
10.52	101690.04	2.14	-0.13	0.17	-0.89	13.17	-1.65	5.91	32.80	34.9
10.54	101692.12	1.97	-0.23	0.02	-0.90	13.41	0.43	0.61	32.80	34.9
10.56	101692.12	1.97	-0.21	0.02	-0.93	15.06	0.18	9.57	32.80	35.0
10.59	101694.24	1.79	-0.23	0.04	-0.95	13.84	4.15	2.74	32.82	34.9
10.61	101690.21	2.13	-0.19	0.04	-0.96	13.23	10.43	-7.56	32.80	34.8
10.63	101690.21	2.13	-0.30	0.04	-0.93	6.65	3.29	-7.38	32.80	35.0
10.66	101690.45	2.11	-0.21	0.05	-0.96	-0.98	13.35	-22.32	32.81	34.7
10.68	101693.48	1.86	-0.19	0.01	-0.97	4.82	16.83	-12.93	32.81	34.9
10.70	101693.48	1.86	-0.29	-0.01	-1.11	9.33	4.09	9.57	32.81	34.9
10.73	101691.22	2.04	-0.29	0.02	-1.07	18.72	8.48	9.39	32.81	35.0
10.75	101691.22	2.04	-0.18	0.05	-1.04	23.48	7.68	10.24	32.80	35.3
10.77	101690.91	2.07	-0.18	0.02	-1.06	24.82	7.74	-0.12	32.80	34.8
10.79	101690.45	2.11	-0.21	0.01	-0.95	23.11	14.94	-1.95	32.81	34.9
10.82	101690.45	2.11	-0.15	0.08	-0.93	23.72	19.63	0.98	32.82	34.9
10.84	101692.69	1.92	-0.13	0.07	-0.95	19.39	20.12	6.71	32.82	34.9
10.87	101691.22	2.04	-0.19	-0.02	-0.95	16.28	17.20	1.22	32.81	35.0
10.89	101691.22	2.04	-0.15	-0.04	-0.85	20.79	17.74	16.59	32.81	34.9
10.91	101690.35	2.12	-0.15	0.03	-0.90	27.74	13.72	10.12	32.81	34.9
10.93	101689.34	2.20	-0.25	-0.04	-0.86	32.13	10.79	1.77	32.80	35.0
10.96	101689.34	2.20	-0.20	0.09	-0.89	45.79	3.96	19.82	32.80	34.8
10.98	101690.48	2.11	-0.34	0.12	-1.21	13.72	7.68	-27.99	32.80	34.8
11.00	101690.04	2.14	-0.15	0.09	-1.04	4.33	3.90	-7.62	32.80	35.0
11.03	101690.04	2.14	-0.28	0.10	-1.05	11.65	-4.39	45.61	32.80	35.0
11.05	101689.97	2.15	-0.21	-0.01	-1.02	12.44	-1.59	21.16	32.80	35.0
11.07	101689.97	2.15	-0.19	-0.07	-1.01	11.04	6.95	-21.59	32.80	35.0
11.09	101692.05	1.98	-0.17	0.00	-0.99	9.39	9.02	-12.62	32.80	34.8
11.12	101693.27	1.87	-0.22	0.05	-0.98	5.06	8.48	-9.63	32.80	34.8
11.14	101693.27	1.87	-0.25	-0.07	-0.92	5.49	7.38	12.38	32.80	35.0
11.16	101692.73	1.92	0.00	-0.04	-0.76	2.13	16.59	9.27	32.80	34.9
11.19	101694.20	1.80	-0.27	0.12	-0.88	-14.15	19.57	-14.09	32.80	35.0
11.21	101694.20	1.80	-0.29	0.20	-0.97	-24.51	22.56	-26.40	32.80	35.0
11.23	101691.18	2.05	-0.30	0.06	-1.00	-24.27	16.40	-12.32	32.80	34.9
11.25	101693.69	1.84	-0.13	-0.12	-0.92	-16.16	13.29	-2.20	32.80	34.9
11.28	101693.69	1.84	-0.16	0.01	-1.03	-11.40	-0.49	-8.90	32.80	34.9
11.30	101695.59	1.68	-0.27	0.04	-0.98	-3.17	-2.62	-10.98	32.79	34.8
11.32	101692.98	1.90	-0.37	-0.03	-1.11	10.67	-7.80	-1.10	32.79	35.1
11.35	101692.98	1.90	-0.16	-0.04	-1.04	24.57	-14.76	-2.44	32.79	34.7
11.37	101692.56	1.93	-0.20	0.08	-1.01	34.02	-7.07	-3.17	32.79	35.0
11.40	101694.48	1.77	-0.20	0.17	-0.84	40.79	-0.06	2.80	32.80	35.2
11.42	101694.48	1.77	-0.24	0.07	-0.97	43.11	6.40	11.22	32.80	35.0
11.44	101693.16	1.88	-0.14	-0.33	-1.48	43.11	3.35	2.56	32.79	34.7
11.47	101692.47	1.94	-0.38	0.26	-0.96	32.07	5.06	0.06	32.79	34.9
11.49	101692.47	1.94	-0.29	0.09	-0.98	15.12	12.93	-11.95	32.79	34.9
11.51	101689.75	2.17	-0.27	0.03	-1.06	8.17	20.79	-2.20	32.77	34.8
11.54	101693.05	1.89	-0.17	-0.00	-1.06	4.39	19.88	-10.30	32.78	34.8
11.56	101693.05	1.89	-0.21	-0.03	-1.02	0.55	20.12	-17.80	32.78	35.0
11.59	101693.22	1.88	-0.32	-0.04	-0.98	0.24	14.27	-15.79	32.78	34.9
11.61	101690.27	2.12	-0.27	-0.02	-0.94	11.52	27.44	18.78	32.78	35.1
11.63	101690.27	2.12	-0.12	0.08	-0.92	11.10	16.04	17.74	32.78	35.0
11.65	101690.44	2.11	-0.12	-0.02	-0.95	6.10	0.73	-33.23	32.77	35.0
11.68	101689.23	2.08	-0.36	0.21	-0.88	16.10	3.72	23.29	32.78	34.9
11.70	101690.79	2.08	-0.26	0.00	-0.98	19.27	-6.71	34.63	32.78	35.0
11.73	101692.35	1.95	-0.32	0.00	-1.04	24.94	-18.11	9.76	32.77	34.7
11.75	101689.99	2.15	-0.21	-0.04	-0.96	30.49	-6.16	-1.34	32.78	34.9
11.77	101689.99	2.15	-0.24	0.05	-0.95	29.02	-2.01	1.71	32.78	35.3
11.80	101688.70	2.25	-0.26	-0.08	-0.94	23.66	-15.37	31.16	32.76	34.9
11.82	101688.70	2.25	-0.26	0.08	-0.96	15.12	-9.70	1.40	32.77	34.9
11.84	101691.31	2.04	-0.33	0.07	-0.89	6.89	6.52	-19.21	32.77	35.0
11.87	101689.33	2.20	-0.26	0.02	-0.93	-0.37	8.17	-17.20	32.77	35.0
11.89	101689.33	2.14	-0.22	-0.30	-0.93	5.37	6.52	-30.61	32.76	34.9
11.91	101690.09	2.14	-0.13	-0.06	-1.02	8.66	1.83	-34.57	32.76	34.9
11.94	101690.27	2.12	-0.39	-0.34	-0.80	14.09	20.85	35.00	32.76	35.0
11.96	101690.27	2.12	-0.20	0.12	-0.93	-0.24	13.35	15.55	32.77	35.0
11.98	101691.76	2.00	-0.46	0.03	-1.19	-12.99	19.39	8.72	32.77	34.8
12.01	101689.11	2.22	-0.54	-0.02	-1.02	4.94	13.90	51.34	32.75	34.7
12.03	101689.11	2.22	-0.11	-0.08	-1.00	21.95	3.84	50.79	32.76	34.7
12.06	101690.61	2.10	-0.24	0.12	-0.98	4.15	24.09	53.72	32.76	34.9
12.08	101689.53	2.18	-0.28	0.06	-1.00	2.07	21.04	36.46	32.76	34.9
12.10	101689.53	2.18	-0.20	-0.04	-0.86	12.87	14.33	49.39	32.76	35.0
12.13	101689.41	2.20	-0.22	0.05	-0.93	6.22	14.51	97.80	32.76	35.0
12.15	101689.92	2.15	-0.17	0.03	-0.91	7.99	7.44	88.96	32.76	35.0
12.17	101689.92	2.15	-0.25	0.14	-0.95	5.24	14.94	44.39	32.76	35.0
12.19	101691.59	2.01	-0.23	0.08	-0.91	3.29	13.72	30.00	32.77	35.1
12.22	101691.59	2.01	-0.27	0.05	-0.96	6.89	9.15	25.85	32.77	34.9
12.24	101691.59	2.01	-0.19	0.09	-0.92	7.74	1.71	24.82	32.77	34.9
12.27	101687.03	2.39	-0.18	0.14	-0.95	10.24	-1.10	27.87	32.74	34.8
12.29	101690.61	2.10	-0.23	0.20	-0.93	9.02	0.00	24.63	32.76	35.0
12.31	101690.61	2.10	-0.20	0.21	-0.92	9.33	4.57	26.34	32.76	35.0
12.34	101691.66	2.01	-0.15	0.21	-0.92	2.93	9.45	67.93	32.76	35.0
12.36	101690.09	2.07	-0.18	0.15	-0.65	4.51	14.57	51.83	32.77	34.8
12.38	101690.89	2.07	-0.20	0.06	-0.86	6.10	31.34	31.77	32.77	34.9
12.41	101690.61	2.10	-0.13	-0.30	-0.85	41.65	40.61	29.39	32.76	35.0
12.44	101688.02	2.31	-0.32	-0.05	-1.04	29.88	38.72	39.33	32.76	35.0
12.46	101688.02	2.31	-0.45	0.12	-0.97	38.17	6.59	40.12	32.77	34.9
12.48	101690.09	2.14	-0.39	0.25	-1.20	38.35	-1.83	33.54	32.77	34.8
12.51	101689.75	2.17	-0.36	0.33	-1.02	25.73	-2.13	10.18	32.76	34.9
12.53	101689.75	2.17	-0.24	0.30	-0.95	12.44	0.79	-12.20	32.76	34.9
12.55	101690.02	2.14	-0.20	0.00	-0.94	9.27	11.22	-16.59	32.77	34.9
12.57	101691.83	1.99	-0.23	-0.05	-0.97	14.21	20.43	-14.33	32.77	34.9
12.60	101691.83	1.99	-0.23	0.20	-0.94	4.57	20.79	-15.49	32.77	34.8
12.62	101692.80	1.91	-0.30	0.13	-1.04	1.10	20.79	-6.04	32.77	34.9
12.65	101694.09	1.81	-0.31	0.00	-1.19	3.35	28.60	-18.23	32.77	34.8
12.67	101694.09	1.81	-0.29	-0.04	-1.03	0.06	31.40	-12.01	32.77	34.9
12.70	101692.28	1.96	-0.13	0.19	-0.92	2.44	24.39	-22.01	32.77	35.1
12.72	101690.89	2.07	-0.23	0.23	-0.93	-2.56	24.09	-25.00	32.77	34.9
12.74	101690.89	2.07	-0.07	-0.11	-0.81	30.43	21.65	-15.73	32.77	34.8
12.77	101690.96	2.07	-0.39	0.06	-1.18	8.54	29.21	7.20	32.76	34.9
12.79	101692.62	1.93	-0.29	-0.06	-1.04	0.61	2.38	9.02	32.77	35.0
12.82	101692.62	1.93	-0.21	0.18	-0.95	7.56	8.96	-13.66	32.77	35.0
12.84	101688.53	2.27	-0.29	0.10	-0.98	5.98	5.37	-7.26	32.76	34.8
12.86	101694.26	1.79	-0.12	0.10	-0.91	10.55	7.87	-1.40	32.76	34.7
12.89	101694.26	1.79	0.04	0.08	-1.00	8.78	13.78	-1.89	32.76	34.8
12.91	101690.96	2.07	-0.14	0.01	-0.99	13.17	13.66	-0.37	32.76	34.8
12.93	101692.00	1.98	-0.08	0.20	-1.08	1.59	-0.61	12.01	32.77	34.9
12.96	101692.00	1.98	-0.22	0.25	-0.92	1.46	1.89	11.22	32.77	34.9
12.98	101692.28	1.96	-0.16	0.13	-0.95	8.78	13.96	16.77	32.77	35.1
13.01	101690.27	2.12	-0.24	0.14	-1.05	6.95	12.01	3.41	32.77	34.9
13.03	101690.27	2.12	-0.23	0.09	-1.01	9.57	14.94	0.55	32.77	34.7
13.05	101691.83	1.99	-0.18	0.08	-0.95	11.95	13.90	-0.55	32.77	35.0
13.08	101685.54	2.52	-0.09	0.11	-0.98	11.77	16.77	-0.67	32.76	34.8
13.13	101692.59	1.93	-0.19	0.19	-1.00	9.70	6.34	4.88	32.78	34.8
13.15	101687.94	2.32	-0.20	0.09	-0.98	11.04	5.49	9.82	32.77	34.9
13.18	101687.94	2.32	-0.25	0.14	-1.02	9.02	1.04	8.72	32.77	34.9
13.20	101691.41	2.03	-0.02	0.16	-0.88	11.16	2.38	-11.16	32.77	34.9
13.22	101690.79	2.08	-0.09	0.22	-0.97	7.99	8.84	-12.20	32.77	34.8
13.24	101690.79	2.08	-0.35	0.13	-1.03	5.91	5.55	14.09	32.77	34.7
13.27	101693.32	1.87	-0.21	0.14	-1.04	4.51	-2.93	22.68	32.77	34.8
13.29	101692.25	1.96	-0.17	0.11	-0.97	3.41	-0.91	19.39	32.78	34.9
13.31	101692.25	1.96	-0.18	0.12	-0.91	8.78	11.28	-5.49	32.78	35.0
13.34	101692.18	1.96	-0.26	0.16	-0.90	9.57	13.84	-7.80	32.77	34.7
13.36	101691.59	2.01	-0.10	0.17	-0.92	7.44	18.17	7.32	32.77	34.7
13.38	101691.59	2.01	-0.19	0.22	-1.04	5.73	17.01	6.83	32.77	34.8
13.40	101692.88	1.91	-0.20	0.20	-1.07	5.49	7.44	12.32	32.77	34.9
13.43	101692.88	1.91	-0.23	0.17	-0.98	9.27	1.83	10.85	32.77	34.8
13.45	101692.18	1.96	-0.13	0.02	-0.92	16.04	-3.11	17.26	32.77	34.8
13.47	101687.77	2.33	-0.14	0.09	-0.89	18.84	-2.38	29.76	32.77	34.7
13.49	101687.77	2.33	-0.07	0.14	-0.92	22.93	8.72	11.89	32.77	35.0
13.52	101689.05	2.22	-0.19	0.18	-1.05	24.63	10.24	10.73	32.77	34.9
13.54	101686.72	2.42	-0.25	0.12	-1.12	28.84	6.89	0.79	32.77	34.9
13.56	101686.72	2.42	-0.36	0.18	-1.13	32.87	5.49	-2.93	32.77	35.0
13.59	101691.03	2.06	-0.44	0.02	-1.21	14.76	54.27	-33.90	32.78	34.9
13.61	101691.55	2.02	-0.39	-0.03	-1.15	44.02	47.50	11.71	32.78	35.0
13.63	101691.55	2.02	-0.11	0.29	-0.96	45.85	34.33	7.50	32.78	34.8
13.65	101689.92	2.15	-0.11	0.48	-0.89	26.65	5.98	-18.35	32.77	34.8
13.68	101689.92	2.15	-0.23	0.23	-0.80	9.94	11.46	-33.84	32.77	34.7
13.70	101688.11	2.30	-0.23	0.04	-0.81	3.23	9.15	-45.18	32.77	34.8
13.72	101690.44	2.11	-0.21	0.09	-0.88	-0.30	9.88	-35.61	32.77	34.8
13.75	101690.44	2.11	0.43	0.21	-0.95	-0.18	25.98	-11.77	32.77	34.9
13.77	101689.05	2.22	-0.09	0.05	-0.91	-0.12	16.52	-17.87	32.77	34.9
13.79	101687.77	2.33	-0.28	0.06	-0.99	6.46	18.48	-19.70	32.77	34.7
13.81	101687.77	2.33	-0.31	0.02	-1.06	25.49	30.37	71.95	32.77	34.9
13.84	101691.13	2.05	-0.44	0.15	-1.06	24.57	-2.50	102.07	32.77	35.0
13.86	101691.31	2.04	0.11	0.04	-1.12	26.59	-5.79	49.51	32.78	34.7
13.89	101691.31	2.04	0.20	0.21	-1.03	23.78	-25.06	93.60	32.78	34.7
13.91	101690.09	2.14	-0.09	0.17	-1.03	20.49	-27.01	131.95	32.77	34.7
13.93	101691.76	2.00	-0.02	0.16	-1.04	30.37	-32.62	108.05	32.77	34.9
13.95	101691.76	2.00	0.27	0.23	-0.98	-0.85	-27.80	43.35	32.77	34.9
13.98	101690.96	2.07	0.00	0.23	-0.91	-0.18	-23.11	25.55	32.77	35.0
14.00	101690.96	2.07	-0.13	0.06	-0.91	0.00	-4.57	24.51	32.77	34.7
14.02	101691.31	2.04	-0.01	0.09	-0.97	4.02	12.74	-15.49	32.77	35.0
14.04	101690.09	2.14	-0.37	0.09	-0.96	6.59	14.88	-5.37	32.77	34.9
14.07	101690.09	2.14	-0.19	0.12	-0.99	8.35	10.91	18.72	32.77	34.7
14.09	101688.36	2.28	-0.16	0.16	-1.01	14.02	8.35	24.27	32.77	34.7
14.11	101689.92	2.15	-0.20	0.19	-1.03	17.68	9.70	30.79	32.76	34.7
14.14	101689.92	2.15	-0.29	0.26	-0.94	20.37	15.30	17.62	32.76	34.9
14.16	101687.48	2.35	-0.26	0.18	-0.96	18.54	19.21	-9.45	32.76	34.8
14.18	101692.25	1.96	-0.24	-0.06	-0.93	21.59	17.80	11.71	32.78	35.0
14.21	101692.25	1.96	-0.26	0.23	-0.96	21.04	16.16	30.06	32.77	34.8
14.23	101690.09	2.14	-0.14	0.18	-0.87	17.26	25.06	-3.54	32.77	34.8
14.26	101689.92	2.15	-0.06	0.10	-0.92	14.88	35.73	-32.99	32.77	34.7
14.28	101689.92	2.15	-0.21	0.11	-0.94	11.28	30.61	-21.52	32.77	35.1
14.30	101688.46	2.27	-0.13	0.12	-0.98	8.29	26.40	-5.55	32.77	34.8
14.32	101691.83	1.99	-0.16	0.24	-0.94	7.87	30.79	-12.07	32.77	34.6
14.35	101691.83	1.99	-0.21	0.26	-0.99	3.72	29.21	-14.57	32.77	34.7
14.37	101689.84	2.16	-0.24	0.10	-1.07	2.80	15.24	-12.74	32.77	35.0
14.39	101689.41	2.20	-0.10	0.11	-1.05	7.99	0.00	-4.27	32.77	34.8
14.42	101689.41	2.20	-0.17	0.16	-1.02	10.30	-11.04	10.73	32.77	34.9
14.44	101687.48	2.35	-0.34	0.26	-0.98	8.29	-18.35	11.52	32.76	34.9
14.46	101687.31	2.24	-0.12	-0.01	-1.04	11.34	-25.91	19.39	32.77	34.9
14.49	101688.88	2.24	0.09	-0.03	-0.97	23.35	-15.00	5.79	32.77	34.8
14.51	101689.33	2.20	-0.29	0.12	-0.89	28.60	1.71	-12.93	32.77	34.9
14.53	101689.33	2.20	-0.28	0.17	-0.96	25.43	7.20	-12.50	32.77	34.8
14.56	101689.50	2.19	-0.21	0.17	-1.02	19.27	8.35	-2.26	32.77	34.7
14.58	101689.58	2.18	-0.05	0.21	-1.09	18.11	15.37	1.83	32.76	35.0
14.60	101689.58	2.18	-0.14	0.27	-1.05	13.23	20.00	5.61	32.77	34.9
14.63	101687.31	2.37	-0.17	0.16	-1.10	7.80	19.94	-3.23	32.77	34.9
14.65	101684.33	2.62	-0.23	0.08	-1.04	8.11	18.29	-5.24	32.76	34.8
14.67	101684.33	2.62	-0.21	0.21	-0.99	6.71	15.06	-11.16	32.77	34.9
14.70	101686.90	2.40	-0.20	0.17	-1.06	4.15	6.89	9.57	32.77	34.9
14.72	101687.77	2.33	-0.20	-0.03	-0.96	10.73	18.78	-15.30	32.77	34.8
14.74	101687.77	2.33	-0.14	-0.03	-0.95	21.46	25.85	-26.16	32.77	34.9
14.77	101688.02	2.31	-0.17	0.15	-0.98	26.22	20.30	-17.93	32.77	35.0
14.79	101687.66	2.34	-0.15	0.13	-0.96	27.68	11.22	-2.50	32.77	34.8
14.81	101687.66	2.34	-0.24	0.08	-0.91	33.78	7.87	-3.17	32.77	34.7
14.84	101688.19	2.30	-0.20	0.02	-0.95	42.20	6.10	-11.16	32.76	34.8
14.86	101689.05	2.22	-0.14	-0.00	-0.96	49.51	7.20	-19.45	32.77	34.7
14.88	101689.05	2.22	-0.28	-0.04	-1.02	53.11	-2.38	1.16	32.77	34.8
14.91	101688.36	2.28	-0.22	-0.01	-1.21	57.87	-8.78	-1.34	32.76	34.8
14.93	101688.88	2.24	-0.33	-0.22	-1.20	73.48	-23.17	-18.11	32.76	34.9
14.95	101688.88	2.24	-0.26	-0.23	-1.00	87.13	-28.72	-17.07	32.76	35.0
14.98	101686.20	2.46	-0.10	0.23	-0.86	73.66	-34.57	18.78	32.77	34.8
15.00	101687.45	2.36	-0.09	0.22	-0.82	46.52	-31.04	39.57	32.76	34.9
15.02	101687.45	2.36	-0.02	0.25	-0.88	20.73	-16.71	35.55	32.76	34.7
15.05	101688.34	2.28	-0.24	0.17	-0.83	-1.77	-8.84	21.34	32.75	34.8
15.07	101688.34	2.28	-0.30	0.18	-0.81	-22.38	-6.10	22.20	32.76	34.9
15.09	101689.19	2.21	-0.41	-0.07	-0.84	-24.63	-6.16	6.28	32.76	34.7
15.12	101687.38	2.36	-0.35	-0.23	-0.69	-14.21	-4.27	-9.27	32.75	34.9
15.14	101687.38	2.50	-0.23	-0.18	-0.98	-12.32	-5.98	12.44	32.75	34.9
15.16	101685.75	2.50	-0.07	-0.01	-0.91	-16.16	9.88	35.49	32.75	34.8
15.19	101689.11	2.22	-0.11	0.07	-0.88	-9.76	24.39	74.21	32.74	34.8
15.21	101689.11	2.22	-0.21	0.12	-1.02	-14.39	29.94	77.74	32.74	34.9
15.23	101689.98	2.15	-0.47	0.14	-1.03	-20.12	25.79	56.77	32.74	34.9
15.26	101687.83	2.33	-0.40	0.03	-1.05	-5.61	9.70	9.88	32.74	34.8
15.29	101688.27	2.29	-0.38	-0.07	-0.95	3.29	10.61	27.93	32.73	34.6
15.31	101688.27	2.29	-0.27	0.04	-0.92	12.44	13.54	10.61	32.73	34.7
15.33	101688.09	2.30	-0.37	0.04	-0.93	21.65	24.45	-4.51	32.73	34.8
15.35	101688.09	2.30	-0.25	0.04	-0.99	22.80	28.35	-1.77	32.74	34.9
15.38	101688.86	2.24	-0.19	0.16	-1.05	19.45	29.15	15.55	32.74	34.7
15.40	101689.77	2.17	-0.38	0.14	-1.05	19.94	25.00	-3.90	32.73	34.8
15.42	101689.77	2.17	-0.27	0.07	-1.03	17.38	19.21	6.04	32.73	34.8
15.45	101688.69	2.25	-0.22	0.32	-1.00	8.23	10.79	16.71	32.74	34.9
15.47	101687.41	2.36	-0.19	0.11	-0.98	4.88	7.32	-3.72	32.73	34.7
15.49	101687.41	2.36	-0.24	0.12	-0.97	4.02	3.90	-4.82	32.73	34.7
15.52	101690.11	2.14	-0.24	0.16	-0.92	-0.24	-1.10	14.09	32.73	34.9
15.54	101690.62	2.09	-0.08	0.12	-0.88	-1.77	4.27	27.56	32.73	34.9
15.56	101690.62	2.09	-0.27	0.05	-0.85	0.00	15.91	7.74	32.73	34.9
15.59	101686.71	2.42	-0.31	-0.07	-0.95	4.63	20.37	5.61	32.73	34.7
15.61	101688.03	2.31	-0.27	0.18	-0.95	8.23	21.71	14.33	32.73	34.6
15.63	101688.03	2.31	-0.16	0.12	-1.01	11.59	24.76	9.39	32.73	34.9
15.66	101689.48	2.19	-0.29	0.10	-1.10	15.79	22.32	3.72	32.73	34.7
15.68	101688.30	2.29	-0.32	0.13	-1.05	16.28	19.45	4.15	32.72	34.7
15.70	101688.30	2.29	-0.22	0.17	-0.98	14.88	14.45	5.06	32.72	34.7
15.72	101686.36	2.45	-0.18	0.22	-1.06	11.95	9.15	16.40	32.73	34.7
15.75	101686.39	2.45	-0.25	0.21	-1.00	6.77	7.07	16.28	32.72	34.9
15.77	101686.39	2.45	-0.16	0.28	-0.99	0.85	6.59	18.05	32.72	34.9
15.80	101681.71	2.83	-0.07	0.02	-0.94	-0.06	9.33	8.23	32.71	34.8
15.82	101686.98	2.40	-0.27	0.11	-0.92	2.38	13.48	10.30	32.73	34.9
15.84	101686.98	2.40	-0.19	0.05	-0.98	7.01	14.76	15.85	32.73	34.8
15.87	101686.32	2.45	-0.19	0.11	-0.94	11.71	17.62	8.05	32.72	34.7
15.89	101686.32	2.45	-0.14	0.16	-0.98	13.48	21.16	-0.55	32.73	34.8
15.91	101688.62	2.26	-0.33	0.17	-1.01	13.90	19.21	2.56	32.73	34.6
15.94	101688.13	2.30	-0.11	0.04	-1.06	17.87	16.46	13.11	32.72	34.9
15.96	101688.13	2.30	-0.20	0.16	-0.99	17.50	16.10	14.82	32.72	34.9
15.98	101687.78	2.33	-0.09	0.11	-0.98	17.20	15.18	10.00	32.72	34.8
16.01	101686.39	2.45	-0.29	0.23	-1.03	11.10	7.62	11.83	32.71	34.9
16.03	101686.39	2.45	-0.17	0.06	-0.98	8.78	0.73	16.34	32.72	34.9
16.05	101688.75	2.25	-0.26	0.17	-0.95	7.80	-0.12	12.56	32.72	34.7
16.07	101689.45	2.19	-0.17	0.18	-0.96	5.30	4.57	-3.41	32.72	34.7
16.10	101689.45	2.19	-0.25	0.24	-0.99	0.06	7.99	-5.73	32.72	34.7
16.12	101688.30	2.29	-0.26	0.18	-1.02	-2.87	6.59	4.39	32.71	34.7
16.15	101688.02	2.31	-0.17	0.17	-0.98	-2.87	10.67	6.83	32.70	34.8
16.17	101688.02	2.31	-0.14	0.23	-0.93	-4.15	19.57	8.72	32.70	34.8
16.20	101687.09	2.39	-0.22	0.09	-0.98	-3.96	21.59	20.43	32.71	34.7
16.22	101687.53	2.35	-0.28	0.05	-0.97	2.32	17.74	15.00	32.71	34.9
16.24	101687.53	2.35	-0.08	0.08	-0.94	7.26	19.76	18.41	32.71	34.8
16.26	101688.05	2.31	-0.02	0.12	-0.90	9.21	22.99	23.05	32.71	34.8
16.29	101687.15	2.38	-0.22	0.18	-0.98	11.22	22.99	12.32	32.70	35.0
16.31	101687.15	2.38	-0.18	-0.06	-0.97	24.45	25.67	14.94	32.70	34.8
16.34	101686.88	2.40	-0.16	-0.10	-0.90	37.80	23.41	29.82	32.70	34.5
16.36	101687.22	2.38	-0.31	0.22	-0.91	38.96	17.93	31.16	32.70	34.5
16.38	101687.22	2.38	-0.46	0.52	-1.04	24.45	2.99	9.21	32.70	34.7
16.41	101688.23	2.29	-0.33	0.58	-1.07	6.71	0.91	-15.49	32.71	34.6
16.43	101688.70	2.25	-0.18	0.29	-1.12	-5.67	1.40	0.49	32.70	34.6
16.45	101688.70	2.25	-0.22	0.33	-1.06	-11.10	3.54	4.45	32.70	34.7
16.48	101686.45	2.44	-0.16	0.18	-0.98	-11.34	9.70	-10.30	32.69	34.6
16.50	101686.17	2.46	-0.12	0.14	-0.91	-10.24	16.22	-15.18	32.70	34.7
16.52	101686.17	2.46	-0.14	0.08	-0.90	-4.82	21.16	-19.09	32.70	34.8
16.55	101690.27	2.12	-0.15	0.10	-0.91	1.52	25.73	-11.65	32.70	34.6
16.57	101691.04	2.06	-0.21	0.13	-0.91	7.74	29.76	-19.02	32.70	34.8
16.59	101691.04	2.06	-0.16	0.18	-0.95	10.24	31.59	-17.50	32.70	34.7
16.61	101689.12	2.22	-0.08	0.26	-0.98	9.70	33.72	-12.74	32.70	34.8
16.64	101689.12	2.22	-0.13	0.23	-0.98	8.60	33.11	-16.22	32.69	34.8
16.66	101687.67	2.34	-0.11	0.24	-1.05	6.40	29.33	-15.06	32.69	34.5
16.69	101685.41	2.53	-0.03	0.23	-0.99	3.60	25.85	-8.23	32.68	34.6
16.71	101685.41	2.53	0.01	0.10	-0.96	2.74	24.88	-4.02	32.69	34.6
16.73	101688.88	2.24	-0.07	0.05	-0.99	7.07	20.37	1.10	32.69	34.8
16.75	101691.31	2.04	-0.03	0.11	-0.97	11.65	15.30	2.56	32.69	34.6
16.78	101691.31	2.04	-0.09	0.16	-0.98	16.59	10.12	0.91	32.69	34.8
16.80	101690.09	2.14	-0.06	0.22	-0.98	19.45	5.30	2.74	32.69	34.7
16.82	101690.44	2.11	-0.10	0.20	-0.97	21.46	2.38	3.05	32.69	34.6
16.85	101690.44	2.11	-0.14	0.22	-1.00	21.10	0.73	2.13	32.69	34.9
16.87	101690.62	2.09	-0.13	0.25	-1.02	17.62	1.04	-0.24	32.70	34.7
16.90	101687.90	2.32	-0.11	0.26	-1.01	15.30	1.95	1.04	32.67	34.6
16.92	101687.90	2.32	-0.11	0.21	-1.00	14.09	2.13	2.93	32.67	34.7
16.94	101690.97	2.07	-0.11	0.22	-1.00	13.96	3.54	2.62	32.70	34.7
16.97	101688.36	2.28	-0.10	0.21	-1.00	14.51	6.95	0.49	32.69	34.9
16.99	101688.36	2.28	-0.11	0.19	-0.99	15.37	9.33	-0.12	32.69	34.7
17.01	101688.19	2.30	-0.11	0.23	-1.01	15.12	11.83	3.35	32.68	34.8
17.04	101687.25	2.37	-0.07	0.27	-0.97	12.99	17.68	1.65	32.69	34.6
17.06	101687.25	2.37	-0.07	0.27	-0.97	8.72	20.79	3.17	32.69	34.5
17.09	101688.88	2.24	-0.08	0.25	-1.00	5.18	20.79	0.67	32.69	34.7
17.11	101688.70	2.25	-0.12	0.17	-1.03	5.37	18.11	0.55	32.68	34.6
17.13	101688.70	2.25	-0.11	0.18	-1.05	6.34	12.99	5.30	32.68	34.6
17.16	101689.41	2.20	-0.10	0.19	-1.05	8.72	10.98	5.37	32.68	34.8
17.18	101689.41	2.20	-0.10	0.15	-1.05	12.26	10.79	-0.55	32.68	34.8
17.20	101689.41	2.20	-0.11	0.17	-1.05	15.67	8.60	0.18	32.68	34.6
17.23	101686.86	2.41	-0.14	0.25	-1.06	18.66	6.71	-5.49	32.67	34.7
17.25	101689.41	2.20	-0.06	0.25	-1.00	18.54	6.52	-7.99	32.68	34.7
17.28	101689.41	2.20	-0.05	0.24	-0.94	15.79	6.77	-3.17	32.68	34.8
17.30	101688.36	2.28	-0.06	0.24	-0.93	14.27	6.71	0.61	32.68	34.6
17.32	101687.03	2.39	-0.08	0.22	-0.94	13.66	6.34	0.49	32.67	34.6
17.34	101687.03	2.39	-0.08	0.19	-0.92	13.78	6.52	-0.18	32.67	34.8
17.37	101688.07	2.31	-0.10	0.20	-0.92	15.24	2.99	0.49	32.67	34.7
17.39	101688.07	2.31	-0.04	0.23	-0.94	16.16	8.54	0.91	32.67	34.8
17.41	101688.52	2.27	-0.10	0.25	-0.94	15.18	10.98	-1.04	32.67	34.7
17.44	101689.70	2.17	-0.12	0.24	-0.97	14.39	10.24	2.99	32.68	34.7
17.46	101688.31	2.35	-0.15	0.20	-0.96	14.88	12.87	-2.62	32.67	34.7
17.49	101687.55	2.35	-0.09	0.22	-0.97	15.79	14.09	-4.15	32.67	34.6
17.51	101687.48	2.35	-0.06	0.24	-0.99	14.63	15.55	-5.49	32.67	34.5
17.53	101687.48	2.35	-0.02	0.21	-1.01	12.62	15.43	0.61	32.67	34.5
17.55	101689.63	2.18	-0.06	0.21	-1.03	10.85	15.24	-0.67	32.67	34.7
17.58	101687.66	2.34	-0.12	0.20	-1.07	10.55	13.17	-3.11	32.67	34.7
17.60	101687.66	2.34	-0.08	0.19	-1.03	10.61	11.71	-3.17	32.66	34.6
17.63	101688.94	2.23	-0.07	0.18	-1.02	10.85	11.83	0.06	32.66	34.7
17.65	101689.05	2.23	-0.12	0.15	-1.01	12.62	12.32	0.18	32.67	34.7
17.67	101689.05	2.23	-0.10	0.17	-1.00	14.82	13.48	-1.28	32.67	34.6
17.69	101688.69	2.25	-0.10	0.18	-0.99	15.43	14.27	-2.68	32.67	34.8
17.72	101687.72	2.33	-0.09	0.16	-0.98	15.91	12.93	0.24	32.67	34.6
17.74	101687.72	2.33	-0.08	0.16	-0.97	16.40	11.28	1.65	32.67	34.7
17.77	101686.95	2.40	-0.08	0.18	-0.98	16.28	9.94	0.12	32.67	34.7
17.79	101687.55	2.35	-0.10	0.19	-1.00	15.30	7.74	0.00	32.66	34.8
17.81	101687.55	2.35	-0.05	0.20	-0.99	14.33	7.13	0.37	32.66	34.6
17.84	101689.05	2.23	-0.06	0.18	-0.97	13.78	7.56	3.54	32.67	34.9
17.86	101689.56	2.18	-0.06	0.21	-1.00	13.35	8.90	1.16	32.67	34.7
17.88	101689.56	2.18	-0.07	0.23	-1.00	11.77	10.61	2.50	32.67	34.8
17.90	101689.05	2.23	-0.07	0.18	-1.00	11.16	12.99	4.02	32.67	34.8
17.93	101689.04	2.23	-0.08	0.17	-0.98	11.04	15.18	0.79	32.66	34.6
17.95	101689.04	2.23	-0.06	0.15	-0.97	11.28	15.12	2.01	32.66	34.8
17.98	101690.33	2.12	-0.09	0.18	-0.99	10.55	13.41	3.48	32.66	34.8
18.00	101688.94	2.23	-0.07	0.20	-1.00	9.33	11.77	3.17	32.66	34.5
18.02	101688.94	2.23	-0.07	0.21	-1.01	8.60	9.76	3.78	32.66	34.6
18.04	101686.27	2.46	-0.09	0.18	-1.00	8.78	7.62	4.57	32.66	34.6
18.07	101686.27	2.46	-0.06	0.16	-1.00	10.85	6.04	3.23	32.65	34.7
18.09	101686.39	2.45	-0.07	0.19	-1.00	11.89	4.15	3.29	32.65	34.6
18.12	101688.69	2.25	-0.05	0.23	-1.00	12.62	3.72	4.82	32.66	34.7
18.14	101687.90	2.32	-0.07	0.20	-0.99	12.50	5.18	4.76	32.66	34.7
18.17	101687.90	2.32	-0.09	0.18	-0.99	14.21	5.91	2.80	32.66	34.8
18.19	101687.95	2.32	-0.09	0.21	-1.01	14.82	6.89	2.07	32.65	34.7
18.21	101689.00	2.23	-0.08	0.20	-1.02	14.39	7.38	1.28	32.65	34.7
18.23	101689.00	2.23	-0.10	0.17	-1.00	14.39	7.68	1.52	32.65	34.8
18.26	101685.95	2.48	-0.08	0.15	-0.99	15.00	7.50	2.56	32.65	34.7
18.28	101685.95	2.48	-0.07	0.17	-1.01	15.24	8.11	3.05	32.66	34.7
18.30	101689.81	2.16	-0.08	0.20	-1.01	14.70	9.02	1.40	32.66	34.5
18.33	101690.04	2.14	-0.08	0.18	-1.00	14.39	9.39	2.87	32.65	34.6
18.35	101690.04	2.14	-0.08	0.19	-0.97	13.66	9.39	3.35	32.66	34.6
18.37	101692.69	1.92	-0.08	0.19	-1.00	12.87	10.61	1.89	32.66	34.7
18.39	101691.89	1.99	-0.08	0.19	-1.00	12.32	9.94	2.50	32.66	34.7
18.42	101691.89	1.99	-0.10	0.17	-1.01	12.26	8.90	1.95	32.66	34.7
18.44	101686.39	2.45	-0.06	0.18	-0.99	13.17	9.21	2.01	32.64	34.7
18.46	101685.53	2.52	-0.08	0.19	-0.98	13.29	8.78	2.13	32.64	34.6
18.49	101685.53	2.52	-0.08	0.18	-0.99	14.02	8.84	0.79	32.64	34.6
18.51	101688.30	2.29	-0.09	0.19	-0.99	14.33	8.29	-0.79	32.64	34.9
18.54	101689.34	2.20	-0.08	0.19	-0.99	13.96	6.83	0.85	32.65	34.7
18.56	101689.34	2.20	-0.08	0.19	-0.99	13.72	5.91	1.89	32.65	34.7
18.58	101686.84	2.41	-0.08	0.17	-1.00	13.41	6.22	2.74	32.63	34.9
18.60	101686.84	2.41	-0.08	0.18	-1.00	13.66	5.85	2.99	32.65	34.6
18.62	101688.20	2.29	-0.08	0.18	-1.00	13.41	6.34	2.50	32.65	34.8
18.65	101689.77	2.17	-0.08	0.18	-1.00	13.23	6.71	2.50	32.65	34.6
18.67	101689.77	2.17	-0.08	0.18	-1.00	13.17	7.62	1.83	32.64	34.7
18.70	101688.30	2.29	-0.07	0.17	-0.99	13.60	8.96	2.01	32.64	34.6
18.72	101688.20	2.29	-0.07	0.18	-0.98	13.23	9.39	3.48	32.65	34.5
18.74	101688.20	2.29	-0.09	0.19	-1.00	12.20	9.15	3.96	32.65	34.5
18.77	101689.86	2.16	-0.08	0.20	-0.98	10.85	9.45	3.90	32.65	34.7
18.79	101688.66	2.26	-0.07	0.16	-0.97	10.30	10.06	5.18	32.65	34.6
18.81	101688.66	2.26	-0.08	0.18	-0.99	10.79	10.37	3.54	32.65	34.6
18.84	101688.90	2.24	-0.09	0.20	-1.01	10.49	10.12	3.29	32.65	34.6
18.86	101687.44	2.36	-0.10	0.19	-1.02	10.18	9.09	3.84	32.64	34.8
18.89	101687.44	2.36	-0.08	0.16	-0.99	10.24	8.90	4.09	32.65	34.6
18.91	101690.98	2.06	-0.08	0.15	-0.99	11.77	9.63	2.56	32.65	34.8
18.93	101689.52	2.19	-0.09	0.16	-1.00	13.54	9.57	2.20	32.64	34.6
18.95	101689.52	2.19	-0.10	0.16	-1.02	14.88	9.15	0.85	32.64	34.8
18.98	101686.50	2.44	-0.10	0.18	-1.00	15.67	8.48	1.40	32.63	34.7
19.00	101687.70	2.34	-0.08	0.18	-1.01	15.67	8.84	1.71	32.63	34.7
19.02	101687.70	2.34	-0.09	0.17	-0.99	15.18	9.21	1.34	32.63	34.6
19.05	101686.91	2.40	-0.10	0.16	-0.99	15.00	8.54	1.77	32.63	34.6
19.07	101688.66	2.26	-0.06	0.17	-0.97	14.57	8.90	2.13	32.64	34.7
19.09	101688.66	2.26	-0.08	0.20	-0.98	12.68	10.43	1.77	32.64	34.8
19.11	101687.61	2.34	-0.10	0.19	-0.98	11.28	10.30	2.20	32.63	34.6
19.14	101686.22	2.46	-0.09	0.17	-0.99	10.91	10.49	1.77	32.64	34.5
19.16	101686.22	2.46	-0.10	0.17	-0.98	10.55	10.73	-1.04	32.64	34.6
19.18	101689.86	2.16	-0.08	0.15	-0.99	10.61	10.37	-0.12	32.64	34.6
19.21	101687.09	2.39	-0.07	0.18	-0.99	10.18	9.57	1.95	32.63	34.5
19.23	101687.09	2.39	-0.09	0.19	-1.00	9.51	8.96	1.59	32.63	34.6
19.26	101689.45	2.19	-0.10	0.16	-1.00	10.79	8.05	1.71	32.63	34.5
19.28	101689.62	2.18	-0.09	0.17	-1.02	11.83	7.26	1.77	32.63	34.5
19.30	101689.62	2.18	-0.09	0.20	-1.02	12.87	7.20	0.55	32.63	34.6
19.33	101685.83	2.49	-0.08	0.18	-1.00	12.87	7.32	-1.04	32.62	34.6
19.35	101685.83	2.49	-0.10	0.18	-0.98	12.74	7.38	-1.22	32.63	34.7
19.38	101685.53	2.52	-0.07	0.15	-0.98	12.99	7.26	0.79	32.63	34.7
19.40	101682.75	2.75	-0.08	0.21	-0.99	11.71	8.23	0.30	32.63	34.7
19.42	101682.75	2.75	-0.07	0.18	-0.98	10.49	9.21	0.98	32.63	34.7
19.45	101686.84	2.41	-0.10	0.19	-1.02	9.82	9.27	0.73	32.63	34.7
19.47	101688.99	2.23	-0.08	0.19	-0.99	8.96	8.54	3.78	32.63	34.5
19.49	101688.99	2.23	-0.10	0.19	-1.03	9.33	8.17	3.23	32.63	34.7
19.52	101690.21	2.13	-0.09	0.18	-1.00	9.76	8.35	2.07	32.63	34.6
19.54	101691.95	1.98	-0.09	0.17	-1.01	11.40	9.33	-0.24	32.64	34.8
19.56	101691.95	1.98	-0.09	0.16	-1.00	13.60	10.55	0.79	32.62	34.6
19.59	101691.90	1.99	-0.09	0.18	-1.00	14.88	11.04	-0.37	32.62	34.6
19.61	101688.44	2.28	-0.08	0.17	-1.01	15.06	10.37	1.83	32.62	34.5
19.63	101688.44	2.28	-0.10	0.17	-0.99	15.24	9.33	1.89	32.62	34.6
19.65	101690.31	2.12	-0.10	0.16	-1.00	15.85	8.84	1.22	32.63	34.5
19.68	101688.65	2.26	-0.08	0.19	-0.99	15.91	9.15	1.46	32.63	34.6
19.70	101688.65	2.26	-0.09	0.20	-1.00	14.76	9.63	0.18	32.63	34.7
19.72	101690.21	2.13	-0.09	0.18	-0.99	13.66	9.09	1.04	32.63	34.7
19.75	101690.21	2.13	-0.07	0.18	-1.00	13.72	8.90	1.22	32.63	34.5
19.77	101690.21	2.13	-0.08	0.19	-0.99	12.80	9.94	2.26	32.63	34.7
19.79	101687.09	2.39	-0.08	0.18	-0.98	11.89	11.16	1.65	32.63	34.5
19.82	101687.09	2.39	-0.07	0.19	-0.98	10.73	11.46	2.01	32.63	34.4
19.84	101689.62	2.18	-0.08	0.18	-0.98	9.76	10.91	2.13	32.63	34.6
19.86	101689.65	2.17	-0.08	0.15	-0.99	10.00	10.30	2.68	32.62	34.6
19.89	101689.65	2.17	-0.10	0.18	-0.98	11.28	8.84	2.20	32.63	34.7
19.91	101689.34	2.20	-0.08	0.16	-0.99	12.93	8.90	0.98	32.63	34.7
19.93	101688.19	2.30	-0.10	0.18	-1.00	13.66	7.87	3.05	32.62	34.4
19.96	101688.19	2.05	-0.07	0.18	-1.01	14.45	6.34	2.26	32.62	34.7
19.98	101691.20	2.05	-0.10	0.20	-1.00	13.96	5.73	1.59	32.62	34.6
20.00	101689.30	2.20	-0.08	0.19	-0.99	13.11	4.88	3.17	32.62	34.9
20.03	101689.30	2.20	-0.07	0.16	-0.98	12.38	5.43	3.23	32.62	34.6
20.05	101687.84	2.32	-0.09	0.19	-1.00	12.32	6.52	3.66	32.62	34.6
20.07	101689.52	2.19	-0.07	0.18	-0.98	10.85	8.60	2.07	32.63	34.7
20.10	101689.52	2.19	-0.09	0.18	-1.00	10.37	9.51	3.17	32.63	34.9
20.12	101688.19	2.30	-0.08	0.18	-0.99	9.51	10.30	4.39	32.62	34.6
20.14	101687.91	2.32	-0.09	0.18	-1.01	9.57	10.43	2.93	32.62	34.5
20.17	101687.91	2.32	-0.09	0.19	-1.00	9.88	10.30	4.33	32.62	34.5
20.19	101687.91	2.32	-0.10	0.18	-1.00	9.76	10.43	2.32	32.62	34.7
20.22	101689.92	2.15	-0.09	0.16	-1.00	10.61	10.18	3.54	32.62	34.6
20.24	101689.92	2.15	-0.09	0.18	-1.00	12.07	9.88	2.68	32.62	34.6
20.26	101687.31	2.37	-0.10	0.18	-1.00	12.44	9.82	2.26	32.62	34.5
20.29	101689.05	2.22	-0.09	0.19	-1.00	12.80	8.60	2.01	32.62	34.6
20.31	101689.05	2.22	-0.09	0.18	-1.00	13.48	7.87	2.74	32.62	34.7
20.33	101689.05	2.22	-0.08	0.20	-1.00	14.09	8.78	1.65	32.62	34.7
20.36	101687.84	2.32	-0.10	0.17	-0.99	14.39	8.78	2.38	32.62	34.6
20.38	101687.84	2.32	-0.10	0.18	-0.98	14.76	8.23	2.44	32.62	34.7
20.40	101688.36	2.28	-0.08	0.17	-0.99	14.88	8.41	1.28	32.62	34.6
20.42	101688.36	2.28	-0.09	0.20	-0.99	13.66	8.84	2.62	32.61	34.7
20.45	101688.43	2.28	-0.08	0.19	-1.00	11.77	9.21	2.50	32.61	34.5
20.47	101690.27	2.12	-0.09	0.19	-1.00	10.79	9.45	2.38	32.62	34.6
20.49	101690.27	2.12	-0.09	0.18	-1.01	10.73	9.70	1.65	32.62	34.6
20.52	101690.17	2.13	-0.10	0.18	-1.00	11.16	10.18	2.62	32.62	34.6
20.54	101687.31	2.37	-0.10	0.18	-0.99	11.65	11.04	1.04	32.62	34.4
20.56	101687.31	2.37	-0.08	0.15	-0.97	12.80	12.01	0.24	32.62	34.7
20.59	101687.67	2.34	-0.10	0.18	-1.00	13.84	11.40	0.30	32.62	34.6
20.61	101686.20	2.46	-0.08	0.18	-0.99	13.78	11.16	0.85	32.60	34.5
20.63	101686.20	2.46	-0.11	0.18	-1.00	13.84	10.43	1.10	32.60	34.6
20.66	101688.26	2.29	-0.08	0.18	-1.00	14.51	9.09	0.98	32.61	34.6
20.68	101686.45	2.44	-0.09	0.19	-0.99	14.27	8.66	2.32	32.61	34.5
20.70	101686.45	2.44	-0.08	0.19	-0.99	13.96	9.02	1.34	32.61	34.5
20.73	101688.88	2.24	-0.08	0.16	-0.97	12.99	8.96	1.22	32.62	34.7
20.75	101688.88	2.24	-0.08	0.18	-0.98	12.87	8.78	1.22	32.62	34.7
20.77	101688.88	2.24	-0.07	0.19	-0.97	12.20	9.21	0.49	32.62	34.6
20.79	101693.05	1.89	-0.07	0.18	-0.98	11.46	10.24	1.28	32.61	34.5
20.82	101689.65	2.17	-0.08	0.18	-1.00	10.98	10.12	2.99	32.61	34.6
20.84	101689.65	2.17	-0.09	0.19	-1.02	10.91	9.57	2.80	32.61	34.5
20.87	101690.52	2.10	-0.07	0.18	-1.00	10.49	9.51	3.72	32.62	34.5
20.89	101687.73	2.33	-0.08	0.17	-1.01	10.79	9.70	3.90	32.61	34.5
20.91	101687.73	2.33	-0.09	0.17	-1.00	11.28	9.70	3.05	32.61	34.7
20.93	101688.70	2.25	-0.10	0.17	-1.00	11.95	9.15	1.46	32.61	34.5
20.96	101688.70	2.25	-0.07	0.18	-1.00	12.56	8.96	1.52	32.61	34.5
20.98	101688.53	2.27	-0.07	0.18	-1.00	13.05	9.09	2.50	32.61	34.5
21.01	101689.41	2.20	-0.09	0.19	-1.02	13.48	8.23	2.93	32.61	34.6
21.03	101693.22	1.88	-0.08	0.19	-1.01	13.90	7.32	1.89	32.62	34.6
21.06	101693.22	1.88	-0.07	0.16	-0.99	14.27	7.62	2.50	32.62	34.6
21.08	101692.52	1.94	-0.08	0.18	-0.99	14.33	7.93	3.66	32.62	34.7
21.10	101690.86	2.07	-0.07	0.16	-1.00	14.88	8.84	4.63	32.61	34.8
21.13	101690.86	2.07	-0.10	0.19	-0.99	14.45	8.84	3.72	32.61	34.4
21.15	101691.66	2.01	-0.08	0.18	-1.00	14.63	9.57	0.91	32.61	34.6
21.17	101691.66	2.01	-0.09	0.20	-1.00	13.60	9.63	2.01	32.61	34.5
21.20	101693.05	1.89	-0.07	0.18	-1.00	12.99	11.34	0.79	32.61	34.6
21.22	101693.05	1.89	-0.07	0.18	-0.98	12.01	11.34	1.77	32.61	34.7
21.24	101693.05	1.89	-0.09	0.17	-0.99	11.71	10.61	1.65	32.61	34.8
21.26	101690.34	2.12	-0.08	0.16	-0.98	11.65	10.24	1.34	32.61	34.5
21.29	101691.03	2.06	-0.10	0.16	-0.98	12.44	9.39	1.52	32.61	34.4
21.31	101691.03	2.06	-0.09	0.16	-0.98	12.99	8.90	0.73	32.61	34.5
21.33	101688.02	2.31	-0.07	0.20	-1.00	12.56	8.78	0.00	32.61	34.7
21.35	101687.34	2.37	-0.07	0.19	-0.99	11.89	8.60	0.18	32.60	34.6
21.38	101687.34	2.37	-0.09	0.14	-0.97	10.98	7.68	3.23	32.60	34.4
21.40	101689.33	2.20	-0.09	0.15	-0.99	11.83	7.13	1.89	32.60	34.6
21.42	101692.34	1.95	-0.08	0.18	-0.99	12.87	7.44	1.95	32.61	34.8
21.45	101692.34	1.95	-0.08	0.15	-0.98	13.23	7.32	2.74	32.61	34.5
21.47	101689.23	2.21	-0.10	0.18	-1.00	13.60	7.26	2.26	32.61	34.6
21.49	101689.23	2.21	-0.08	0.17	-1.02	13.66	7.32	1.40	32.61	34.6
21.52	101690.96	2.07	-0.10	0.20	-1.01	13.41	8.11	-0.61	32.61	34.6
21.54	101685.93	2.48	-0.07	0.17	-0.99	13.29	9.02	-1.04	32.61	34.7
21.56	101685.93	2.48	-0.09	0.17	-1.01	13.29	9.76	-1.34	32.61	34.8
21.59	101688.19	2.30	-0.05	0.20	-1.02	12.99	10.91	-1.16	32.61	34.6
21.61	101686.13	2.47	-0.09	0.19	-1.03	11.95	9.94	1.46	32.60	34.6
21.63	101686.13	2.47	-0.07	0.18	-0.99	11.83	8.66	2.26	32.61	34.6
21.66	101688.19	2.30	-0.08	0.16	-0.97	12.07	8.54	0.30	32.61	34.5
21.68	101691.73	2.00	-0.08	0.15	-0.97	13.05	8.72	0.18	32.61	34.7
21.70	101691.73	2.00	-0.08	0.16	-0.99	13.48	7.93	3.60	32.61	34.4
21.73	101689.84	2.16	-0.08	0.18	-1.01	14.27	7.07	3.60	32.60	34.6
21.75	101689.92	2.15	-0.08	0.18	-1.00	14.70	6.95	3.35	32.61	34.7
21.77	101689.92	2.15	-0.09	0.17	-1.01	15.18	6.77	4.09	32.61	34.6
21.79	101691.66	2.01	-0.11	0.18	-1.00	15.30	6.59	4.76	32.61	34.7
21.82	101691.66	2.16	-0.09	0.16	-0.99	15.30	6.52	4.63	32.60	34.6
21.84	101689.84	2.16	-0.08	0.17	-0.99	14.51	7.07	3.54	32.60	34.7
21.86	101689.84	2.16	-0.10	0.19	-0.99	13.48	9.45	0.37	32.60	34.4
21.88	101689.84	2.16	-0.11	0.17	-1.01	11.95	9.51	-0.49	32.61	34.6
21.91	101688.36	2.28	-0.09	0.17	-1.00	12.07	10.12	0.61	32.61	34.7
21.93	101688.56	2.26	-0.08	0.16	-1.00	10.61	11.83	2.13	32.60	34.6
21.96	101688.56	2.33	-0.10	0.14	-1.00	10.43	12.32	5.06	32.61	34.5
21.98	101687.84	2.33	-0.14	0.12	-1.00	12.38	11.52	2.26	32.61	34.6
22.00	101684.92	2.57	-0.11	0.13	-0.99	14.21	11.34	0.43	32.60	34.6
22.02	101684.92	2.57	-0.09	0.17	-0.99	15.00	12.07	-1.71	32.60	34.7
22.05	101687.17	2.38	-0.10	0.17	-1.00	14.70	12.38	-1.59	32.60	34.6
22.07	101687.07	2.39	-0.10	0.17	-1.00	14.57	11.52	-0.85	32.60	34.6
22.10	101687.07	2.39	-0.07	0.20	-0.99	12.62	11.04	-1.59	32.61	34.6
22.12	101690.09	2.14	-0.05	0.21	-0.99	9.94	11.34	-3.41	32.61	34.7
22.14	101686.48	2.44	-0.07	0.18	-0.99	8.17	9.82	0.55	32.60	34.6
22.17	101686.48	2.44	-0.08	0.15	-0.97	7.99	9.02	1.65	32.60	34.5
22.19	101687.00	2.39	-0.07	0.16	-0.97	9.02	8.84	3.17	32.60	34.7
22.21	101689.08	2.22	-0.08	0.16	-1.01	10.00	8.17	3.72	32.60	34.7
22.24	101689.08	2.22	-0.13	0.15	-1.01	12.20	5.73	5.61	32.60	34.6
22.26	101688.64	2.26	-0.11	0.13	-0.99	15.30	3.84	4.02	32.60	34.5
22.29	101688.46	2.27	-0.09	0.15	-1.00	17.99	4.94	0.49	32.60	34.5
22.31	101688.46	2.27	-0.09	0.17	-1.01	18.90	5.98	-0.49	32.60	34.7
22.33	101687.17	2.38	-0.09	0.20	-1.02	17.74	6.83	0.43	32.60	34.5
22.35	101688.39	2.28	-0.07	0.21	-1.01	15.49	7.74	0.67	32.60	34.6
22.38	101688.39	2.28	-0.07	0.19	-1.00	12.93	9.39	1.10	32.60	34.5
22.40	101687.27	2.37	-0.08	0.16	-0.99	12.01	10.49	1.22	32.59	34.5
22.42	101687.27	2.36	-0.08	0.16	-0.99	11.10	11.40	-0.30	32.60	34.6
22.45	101688.98	2.23	-0.09	0.14	-0.99	10.85	11.04	1.71	32.60	34.7
22.47	101689.53	2.18	-0.10	0.14	-1.00	11.59	9.33	2.56	32.59	34.4
22.49	101689.53	2.18	-0.11	0.13	-0.99	13.11	8.41	2.13	32.61	34.6
22.51	101690.09	2.14	-0.08	0.15	-0.98	14.63	7.38	2.07	32.61	34.6
22.54	101689.33	2.20	-0.09	0.16	-0.98	15.24	7.20	1.34	32.60	34.5
22.56	101689.33	2.20	-0.07	0.18	-0.98	14.82	5.73	0.98	32.60	34.5
22.58	101685.98	2.48	-0.10	0.17	-0.99	12.93	5.24	4.39	32.59	34.8
22.60	101687.52	2.35	-0.10	0.17	-0.98	12.56	4.57	6.34	32.60	34.5
22.63	101687.52	2.35	-0.09	0.16	-0.99	12.87	5.49	4.15	32.60	34.6
22.65	101691.86	1.99	-0.09	0.15	-1.00	13.05	7.74	3.78	32.60	34.6
22.68	101690.16	2.13	-0.10	0.15	-0.99	13.11	9.76	1.46	32.59	34.3
22.70	101690.16	2.13	-0.10	0.15	-1.00	13.29	9.82	-0.43	32.59	34.4
22.72	101689.95	2.15	-0.07	0.18	-1.02	12.62	9.94	-2.20	32.60	34.6
22.74	101689.16	2.22	-0.08	0.18	-1.02	11.04	10.24	-0.67	32.60	34.6
22.77	101689.16	2.22	-0.10	0.17	-1.03	10.18	9.39	0.67	32.60	34.6
22.80	101691.16	2.05	-0.10	0.15	-1.02	10.98	8.41	5.43	32.60	34.6
22.82	101691.34	2.04	-0.10	0.15	-1.01	12.62	9.33	2.50	32.60	34.5
22.84	101691.34	2.04	-0.10	0.14	-1.01	14.27	10.12	-0.12	32.60	34.6
22.86	101689.53	2.18	-0.10	0.13	-1.00	15.49	10.18	1.04	32.59	34.5
22.89	101689.88	2.16	-0.10	0.15	-0.99	16.46	9.45	1.16	32.59	34.5
22.91	101689.88	2.16	-0.09	0.17	-0.97	16.04	9.51	0.24	32.59	34.5
22.93	101688.94	2.23	-0.09	0.16	-0.98	14.70	9.51	4.21	32.59	34.4
22.96	101690.12	2.14	-0.08	0.17	-0.99	14.15	9.57	3.41	32.60	34.7
22.98	101690.12	2.14	-0.08	0.15	-0.99	13.48	10.67	2.07	32.60	34.6
23.01	101691.51	2.02	-0.09	0.15	-0.99	13.41	10.49	3.23	32.60	34.4
23.03	101689.19	2.21	-0.09	0.15	-1.00	12.93	11.22	1.89	32.59	34.7
23.05	101689.19	2.21	-0.10	0.17	-1.00	12.93	12.26	1.10	32.59	34.4
23.08	101691.51	2.02	-0.08	0.16	-1.00	12.07	12.93	1.04	32.60	34.6
23.10	101687.72	2.33	-0.08	0.15	-1.00	11.71	13.78	-0.55	32.59	34.6
23.12	101687.72	2.33	-0.09	0.13	-1.01	12.07	12.87	1.95	32.59	34.6
23.15	101689.60	2.18	-0.10	0.13	-1.00	12.87	11.34	1.34	32.60	34.5
23.17	101690.98	2.06	-0.10	0.15	-1.01	14.02	9.27	0.37	32.60	34.4
23.20	101690.98	2.06	-0.09	0.13	-0.99	14.51	8.11	0.67	32.60	34.5
23.22	101688.42	2.28	-0.08	0.14	-0.98	14.88	7.87	-0.37	32.59	34.6
23.24	101689.11	2.22	-0.09	0.14	-0.98	14.82	7.74	0.37	32.59	34.7
23.27	101689.11	2.22	-0.10	0.16	-0.99	14.39	7.50	1.95	32.59	34.5
23.29	101690.47	2.11	-0.08	0.15	-0.98	13.54	7.62	2.62	32.60	34.4
23.31	101690.47	2.11	-0.08	0.15	-0.97	13.29	9.27	1.46	32.59	34.6
23.34	101690.40	2.11	-0.08	0.15	-0.97	12.93	10.37	1.52	32.59	34.5
23.36	101689.19	2.21	-0.10	0.16	-1.00	12.13	10.18	2.26	32.59	34.4
23.39	101692.73	1.92	-0.08	0.19	-1.01	11.59	8.78	1.46	32.60	34.6
23.41	101692.73	1.92	-0.07	0.16	-0.99	10.73	9.63	-1.10	32.60	34.5
23.43	101692.23	1.96	-0.10	0.13	-0.98	9.94	10.06	1.22	32.59	34.4
23.46	101693.49	1.86	-0.11	0.13	-0.99	11.16	9.51	1.52	32.60	34.5
23.48	101693.49	1.86	-0.08	0.15	-0.99	12.68	8.35	0.67	32.60	34.6
23.50	101687.90	2.32	-0.09	0.14	-0.99	12.44	7.50	1.52	32.59	34.5
23.53	101688.48	2.27	-0.09	0.13	-0.99	13.66	6.83	2.68	32.59	34.6
23.55	101688.48	2.27	-0.09	0.14	-1.00	14.45	6.52	1.59	32.59	34.5
23.58	101689.19	2.21	-0.08	0.17	-1.00	13.78	7.44	1.40	32.59	34.6
23.60	101691.23	2.04	-0.09	0.18	-1.00	12.32	8.29	0.73	32.60	34.7
23.62	101691.23	2.04	-0.08	0.16	-0.99	10.67	9.51	-1.16	32.60	34.7
23.65	101687.45	2.36	-0.08	0.15	-0.98	10.24	10.43	-0.43	32.59	34.4
23.67	101690.74	2.02	-0.08	0.14	-0.97	9.51	10.49	1.22	32.60	34.6
23.69	101691.51	2.02	-0.09	0.13	-0.98	9.57	10.24	2.44	32.60	34.7
23.72	101688.24	2.29	-0.11	0.12	-0.98	11.22	8.84	1.16	32.59	34.5
23.74	101692.55	1.93	-0.11	0.13	-1.00	12.74	7.38	1.65	32.60	34.6
23.77	101692.55	1.93	-0.09	0.16	-1.01	13.23	6.59	1.40	32.60	34.5
23.79	101689.73	2.17	-0.09	0.15	-1.01	13.35	6.95	0.37	32.58	34.6
23.81	101689.73	2.17	-0.10	0.14	-1.02	13.29	7.56	-1.04	32.60	34.6
23.83	101690.64	2.09	-0.08	0.12	-1.02	14.02	8.11	-0.73	32.60	34.5
23.86	101691.36	2.03	-0.09	0.14	-1.03	14.15	7.99	0.49	32.59	34.7
23.88	101691.36	2.03	-0.09	0.15	-1.02	14.76	8.96	-1.04	32.59	34.5
23.91	101690.92	2.07	-0.10	0.15	-1.02	14.82	9.15	-1.22	32.59	34.5
23.93	101689.36	2.20	-0.09	0.14	-0.99	14.27	9.57	-2.01	32.59	34.5
23.96	101690.92	2.07	-0.07	0.13	-0.98	13.41	10.91	-1.89	32.59	34.5
23.98	101690.92	2.07	-0.08	0.16	-0.99	12.38	11.16	-0.30	32.59	34.6
24.00	101690.84	2.08	-0.09	0.16	-0.97	11.77	10.73	1.10	32.59	34.6
24.03	101690.84	2.08	-0.08	0.16	-0.98	10.61	10.06	2.74	32.59	34.5
24.05	101687.20	2.38	-0.05	0.19	-0.98	9.39	9.57	2.68	32.59	34.5
24.07	101689.80	2.16	-0.06	0.18	-1.00	8.29	10.98	0.61	32.59	34.6
24.10	101689.80	2.16	-0.06	0.15	-0.98	7.80	10.37	2.50	32.59	34.6
24.12	101688.77	2.25	-0.09	0.16	-1.02	8.41	9.15	0.85	32.59	34.6
24.14	101691.54	2.02	-0.07	0.13	-1.01	10.37	8.29	2.38	32.59	34.4
24.17	101691.54	2.02	-0.08	0.13	-1.00	12.62	7.87	3.60	32.59	34.6
24.19	101689.88	2.16	-0.08	0.11	-1.00	14.63	8.35	3.54	32.59	34.6
24.21	101688.59	2.26	-0.07	0.15	-1.00	16.22	8.17	4.02	32.59	34.6
24.24	101688.59	2.26	-0.09	0.17	-1.00	16.04	8.54	3.72	32.59	34.7
24.26	101688.59	2.26	-0.10	0.14	-1.00	15.37	8.05	4.15	32.59	34.4
24.29	101690.12	2.14	-0.06	0.13	-0.99	15.73	8.41	3.17	32.60	34.6
24.31	101690.12	2.14	-0.10	0.14	-0.98	15.55	7.74	5.18	32.60	34.4
24.33	101689.95	2.15	-0.10	0.16	-0.97	14.63	7.87	5.49	32.60	34.6
24.35	101692.03	1.98	-0.09	0.14	-0.98	13.84	7.80	3.48	32.60	34.4
24.38	101692.03	1.98	-0.08	0.13	-0.99	13.96	8.72	1.71	32.60	34.4
24.40	101691.41	2.03	-0.09	0.15	-0.99	13.05	9.09	2.50	32.60	34.7
24.42	101690.37	2.18	-0.10	0.14	-1.00	11.77	9.63	2.74	32.60	34.5
24.45	101689.60	2.18	-0.10	0.14	-1.00	11.16	9.21	2.13	32.60	34.7
24.47	101690.64	2.09	-0.08	0.14	-1.01	11.22	9.88	2.56	32.60	34.5
24.49	101691.16	2.05	-0.11	0.14	-1.00	10.79	9.76	1.28	32.60	34.5
24.52	101691.16	2.05	-0.10	0.13	-1.00	11.10	9.76	1.28	32.60	34.4
24.54	101691.36	2.03	-0.08	0.13	-1.00	12.20	10.12	1.34	32.59	34.7
24.56	101691.36	2.03	-0.09	0.15	-1.01	12.13	10.37	0.24	32.60	34.7
24.58	101691.51	2.02	-0.08	0.14	-1.01	12.20	10.37	0.18	32.60	34.6
24.61	101689.98	2.15	-0.10	0.14	-1.01	12.01	8.90	1.40	32.59	34.5
24.63	101689.98	2.15	-0.10	0.15	-1.01	11.83	7.87	1.71	32.59	34.5
24.66	101689.80	2.16	-0.08	0.12	-0.99	12.80	8.23	1.22	32.59	34.6
24.68	101693.59	1.85	-0.08	0.15	-0.99	13.41	9.88	0.79	32.60	34.5
24.70	101693.59	1.85	-0.10	0.15	-0.99	13.54	10.06	0.49	32.60	34.5
24.73	101692.03	1.98	-0.09	0.13	-0.97	13.96	10.06	0.24	32.60	34.4
24.75	101691.79	2.00	-0.08	0.16	-0.98	12.99	10.61	1.46	32.59	34.6
24.77	101691.79	2.00	-0.08	0.15	-0.99	12.20	10.79	2.50	32.60	34.6
24.80	101691.16	2.05	-0.08	0.15	-1.00	11.28	11.04	0.18	32.60	34.6
24.82	101692.55	1.93	-0.10	0.13	-1.00	11.34	10.37	0.67	32.60	34.4
24.85	101692.55	1.91	-0.08	0.13	-1.00	11.95	8.84	2.44	32.60	34.7
24.87	101692.90	1.91	-0.09	0.13	-1.00	12.38	8.23	2.32	32.60	34.6
24.89	101691.34	2.04	-0.08	0.13	-1.00	12.56	7.38	2.50	32.60	34.6
24.92	101691.34	2.04	-0.11	0.15	-1.00	12.68	6.83	1.71	32.60	34.4
24.94	101690.30	2.12	-0.09	0.15	-1.00	12.99	6.59	0.73	32.60	34.5
24.96	101692.52	1.94	-0.08	0.13	-1.00	12.74	7.44	-0.12	32.61	34.3
24.99	101692.52	1.94	-0.09	0.13	-1.00	12.44	7.87	0.55	32.59	34.7
25.01	101687.97	2.31	-0.09	0.14	-1.00	12.93	8.23	1.04	32.59	34.6
25.04	101689.98	2.15	-0.09	0.14	-1.01	12.32	8.84	1.34	32.59	34.5
25.06	101689.98	2.15	-0.10	0.15	-1.00	12.50	9.57	-0.49	32.59	34.6
25.08	101689.88	2.16	-0.10	0.13	-1.00	13.11	10.24	-0.30	32.59	34.5
25.11	101691.09	2.05	-0.09	0.14	-0.99	13.54	10.49	0.18	32.59	34.5
25.13	101691.09	2.05	-0.08	0.15	-0.99	13.17	10.91	0.67	32.59	34.6
25.15	101687.45	2.36	-0.09	0.13	-0.99	12.93	10.67	-1.16	32.59	34.6
25.18	101689.62	2.18	-0.09	0.13	-0.99	13.78	9.02	-0.67	32.59	34.4
25.20	101689.62	2.18	-0.09	0.13	-0.99	14.39	8.17	0.79	32.59	34.6
25.23	101689.73	2.17	-0.09	0.15	-0.99	14.27	7.68	0.61	32.58	34.5
25.25	101692.75	1.92	-0.09	0.13	-0.99	13.66	7.38	1.04	32.59	34.4
25.27	101692.75	1.92	-0.09	0.15	-0.99	12.87	8.23	0.30	32.59	34.5
25.29	101693.00	1.90	-0.07	0.17	-1.00	10.67	9.02	3.84	32.59	34.4
25.32	101689.80	2.16	-0.08	0.15	-0.99	10.49	10.18	0.37	32.59	34.5
25.34	101689.80	2.16	-0.10	0.11	-1.00	10.61	11.77	-0.49	32.59	34.5
25.36	101691.54	2.02	-0.09	0.11	-0.99	11.95	11.52	-0.55	32.59	34.7
25.39	101692.10	1.97	-0.10	0.12	-1.00	12.68	9.94	0.79	32.60	34.5
25.41	101692.10	1.97	-0.10	0.13	-1.00	13.48	9.15	1.34	32.60	34.5
25.43	101690.22	2.13	-0.09	0.14	-1.01	13.54	8.60	2.44	32.59	34.5
25.45	101690.22	1.88	-0.08	0.14	-1.01	13.41	8.41	-0.24	32.59	34.5
25.48	101693.17	1.88	-0.08	0.15	-1.00	12.32	8.48	-0.06	32.59	34.5
25.50	101693.10	1.89	-0.08	0.15	-1.00	11.83	9.02	0.43	32.59	34.5
25.53	101693.10	1.89	-0.07	0.11	-0.98	11.04	9.21	1.46	32.60	34.6
25.55	101694.63	1.76	-0.09	0.14	-1.00	11.59	8.96	2.99	32.60	34.5
25.57	101691.79	2.00	-0.10	0.14	-1.01	12.01	8.66	1.34	32.59	34.5
25.60	101691.79	2.00	-0.09	0.15	-1.00	11.95	8.84	1.46	32.59	34.5
25.62	101689.62	2.18	-0.09	0.15	-0.99	12.13	9.21	1.46	32.59	34.5
25.64	101690.95	2.07	-0.09	0.16	-1.00	12.50	9.94	1.65	32.58	34.5
25.67	101690.95	2.07	-0.08	0.14	-1.00	12.01	10.73	0.18	32.59	34.6
25.69	101688.59	2.26	-0.08	0.13	-0.98	12.44	10.91	-0.06	32.59	34.6
25.72	101690.33	2.12	-0.08	0.13	-0.99	12.50	10.61	3.05	32.59	34.6
25.74	101691.71	2.00	-0.09	0.15	-0.99	12.38	10.18	2.32	32.59	34.6
25.76	101691.71	2.00	-0.08	0.13	-1.00	12.50	9.70	-0.49	32.59	34.7
25.79	101689.36	2.20	-0.09	0.12	-0.98	12.80	8.72	-0.30	32.59	34.5
25.81	101689.36	2.20	-0.11	0.15	-0.97	12.68	7.38	1.59	32.60	34.5
25.83	101692.03	1.98	-0.09	0.13	-0.99	13.23	6.65	1.65	32.60	34.6
25.86	101687.55	2.35	-0.10	0.16	-0.99	12.44	6.40	2.56	32.59	34.6
25.88	101690.67	2.09	-0.09	0.16	-0.99	11.34	7.44	1.95	32.59	34.4
25.91	101690.67	2.09	-0.11	0.16	-0.97	11.34	8.96	-0.49	32.59	34.8
25.93	101689.01	2.23	-0.06	0.12	-1.01	11.16	9.82	0.61	32.59	34.5
25.95	101689.01	2.23	-0.08	0.14	-0.99	10.67	10.79	1.46	32.59	34.4
25.98	101688.24	2.29	-0.08	0.13	-1.00	10.73	10.49	1.28	32.59	34.6
26.00	101690.20	2.13	-0.10	0.12	-1.01	10.91	9.88	-0.18	32.60	34.6
26.02	101690.20	2.13	-0.09	0.14	-1.00	10.79	9.51	0.24	32.60	34.4
26.05	101689.60	2.18	-0.09	0.15	-1.00	10.43	9.21	0.55	32.60	34.5
26.07	101690.92	2.07	-0.09	0.14	-1.00	11.04	8.84	0.61	32.59	34.4
26.10	101690.92	2.07	-0.09	0.14	-1.01	11.59	8.23	0.30	32.59	34.5
26.12	101691.96	1.98	-0.09	0.13	-0.99	12.13	8.48	0.49	32.59	34.7
26.14	101690.22	2.13	-0.09	0.13	-0.98	12.68	8.84	0.98	32.59	34.5
26.16	101690.22	2.13	-0.08	0.14	-1.00	12.87	9.15	-0.49	32.59	34.4
26.19	101690.98	2.06	-0.08	0.15	-1.00	12.38	9.09	0.79	32.60	34.5
26.21	101687.72	2.33	-0.09	0.14	-0.99	11.77	9.09	0.55	32.59	34.5
26.23	101687.72	2.33	-0.09	0.14	-1.00	11.59	8.96	0.06	32.59	34.6
26.26	101689.53	2.18	-0.08	0.13	-0.99	11.46	8.54	-0.12	32.59	34.6
26.28	101692.97	1.90	-0.10	0.14	-0.99	11.28	8.84	-0.37	32.60	34.6
26.30	101692.97	1.90	-0.10	0.14	-1.00	11.89	8.35	0.30	32.60	34.4
26.33	101689.78	2.16	-0.12	0.13	-1.02	13.11	7.38	0.24	32.60	34.4
26.35	101690.22	2.13	-0.12	0.13	-1.02	14.39	5.37	0.37	32.59	34.6
26.37	101690.22	2.13	-0.10	0.13	-1.01	15.49	4.15	-0.91	32.59	34.5
26.40	101690.50	2.10	-0.09	0.13	-1.00	15.85	4.82	-3.41	32.59	34.6
26.42	101687.03	2.39	-0.10	0.15	-1.00	14.21	5.91	-3.11	32.59	34.6
26.45	101687.03	2.39	-0.09	0.16	-1.00	12.38	5.85	-1.65	32.59	34.6
26.47	101691.79	2.00	-0.09	0.14	-1.00	11.59	6.52	-0.73	32.59	34.5
26.49	101692.12	1.97	-0.09	0.13	-0.98	11.22	8.78	-1.22	32.59	34.7
26.52	101692.12	1.97	-0.11	0.13	-0.99	10.98	10.24	0.18	32.59	34.5
26.54	101690.16	2.13	-0.12	0.12	-1.00	12.13	9.82	-0.37	32.59	34.4
26.56	101692.73	1.92	-0.10	0.12	-0.99	13.35	9.45	-1.89	32.60	34.6
26.59	101692.73	1.92	-0.08	0.15	-1.00	13.84	9.94	-2.93	32.60	34.5
26.61	101688.66	2.26	-0.09	0.15	-0.99	12.99	9.94	-1.65	32.59	34.5
26.64	101690.50	2.10	-0.10	0.14	-0.99	12.32	9.70	0.73	32.59	34.4
26.66	101690.50	2.10	-0.09	0.15	-0.99	11.71	9.57	0.61	32.59	34.4
26.68	101690.84	2.08	-0.09	0.13	-1.00	11.59	9.82	0.18	32.59	34.5
26.70	101690.84	2.11	-0.08	0.13	-0.99	11.65	9.63	-0.18	32.59	34.4
26.73	101690.40	2.11	-0.10	0.13	-0.98	11.83	9.76	-0.49	32.59	34.7
26.75	101689.19	2.21	-0.09	0.14	-0.98	12.20	9.21	-0.49	32.59	34.6
26.77	101689.19	2.21	-0.08	0.15	-0.99	11.59	8.78	1.71	32.59	34.5
26.80	101688.59	2.26	-0.10	0.14	-0.99	11.16	8.17	2.62	32.59	34.5
26.83	101686.78	2.41	-0.12	0.12	-0.99	11.65	8.29	2.80	32.58	34.6
26.85	101685.02	2.56	-0.10	0.12	-1.00	13.17	8.66	1.77	32.59	34.5
26.87	101685.02	2.56	-0.09	0.14	-1.01	13.78	8.54	1.95	32.59	34.6
26.90	101688.91	2.24	-0.11	0.14	-1.03	14.45	8.23	2.26	32.60	34.6
26.92	101685.39	2.53	-0.11	0.12	-1.01	14.63	6.77	1.28	32.58	34.6
26.94	101685.39	2.53	-0.11	0.13	-0.99	14.70	5.98	0.55	32.58	34.5
26.96	101688.77	2.25	-0.09	0.13	-0.99	14.21	6.59	-0.79	32.59	34.4
26.99	101684.59	2.59	-0.09	0.14	-0.97	12.44	7.74	0.61	32.59	34.4
27.01	101684.59	2.59	-0.10	0.14	-0.99	10.91	9.33	0.73	32.59	34.7
27.04	101687.38	2.36	-0.11	0.14	-1.00	10.12	9.39	2.26	32.59	34.4
27.06	101687.38	2.36	-0.10	0.13	-1.00	9.76	9.82	0.30	32.59	34.4
27.08	101691.44	2.03	-0.10	0.12	-0.98	10.12	10.18	0.55	32.59	34.6
27.10	101688.59	2.26	-0.10	0.13	-1.01	10.61	10.49	-0.12	32.59	34.5
27.13	101688.59	2.26	-0.09	0.13	-1.01	10.91	9.88	2.20	32.59	34.4
27.15	101690.57	2.10	-0.11	0.12	-0.98	11.52	9.33	1.46	32.59	34.4
27.17	101690.74	2.08	-0.11	0.14	-0.98	11.77	9.15	0.24	32.59	34.4
27.20	101690.74	2.08	-0.10	0.14	-1.01	11.28	9.15	0.06	32.59	34.6
27.22	101689.78	2.16	-0.09	0.15	-1.01	10.98	8.96	1.04	32.60	34.4
27.24	101691.27	2.04	-0.10	0.15	-1.02	10.73	8.90	0.79	32.59	34.6
27.27	101691.27	2.04	-0.11	0.12	-1.01	11.34	9.02	0.91	32.59	34.5
27.29	101690.40	2.11	-0.10	0.12	-1.00	12.74	9.39	1.65	32.59	34.4
27.31	101689.11	2.22	-0.10	0.14	-1.01	13.78	9.21	0.43	32.59	34.4
27.34	101689.11	2.22	-0.10	0.14	-1.01	14.33	10.06	0.06	32.59	34.4
27.36	101687.69	2.34	-0.08	0.18	-1.00	14.21	11.40	0.18	32.60	34.5
27.38	101691.58	2.02	-0.09	0.16	-1.00	13.78	12.74	1.34	32.60	34.6
27.41	101691.58	2.02	-0.09	0.16	-1.02	13.23	11.77	2.38	32.60	34.4
27.43	101692.03	1.98	-0.09	0.16	-1.02	12.74	9.94	3.96	32.60	34.6
27.45	101692.03	1.98	-0.10	0.14	-1.01	12.99	8.23	5.73	32.59	34.6
27.47	101693.34	1.87	-0.12	0.12	-1.01	15.18	5.98	3.96	32.59	34.6
27.50	101690.16	2.13	-0.10	0.12	-0.99	16.83	6.34	-0.37	32.59	34.5
27.52	101690.16	2.13	-0.06	0.25	-0.95	14.33	7.87	-7.44	32.59	34.5
27.55	101689.62	2.18	-0.16	0.14	-0.97	9.76	12.26	1.22	32.59	34.5
27.57	101690.40	2.11	-0.08	0.16	-0.96	7.56	11.65	6.52	32.59	34.8
27.59	101690.40	2.11	-0.08	0.11	-0.97	7.80	11.52	4.02	32.59	34.4
27.61	101687.09	2.39	-0.10	0.08	-0.98	9.21	11.89	7.20	32.59	34.6
27.64	101688.59	2.26	-0.11	0.07	-1.02	12.44	10.55	5.06	32.59	34.5
27.66	101688.59	2.26	-0.09	0.10	-1.02	15.73	9.76	4.33	32.59	34.6
27.69	101690.47	2.11	-0.06	0.17	-1.02	16.10	9.09	9.63	32.60	34.5
27.71	101691.34	2.04	-0.11	0.21	-1.01	14.15	9.57	3.17	32.60	34.5
27.73	101691.34	2.04	-0.09	0.16	-1.00	13.17	10.00	-0.67	32.60	34.4
27.76	101690.57	2.10	-0.10	0.15	-1.00	12.87	11.59	1.40	32.59	34.6
27.78	101692.03	1.98	-0.06	0.12	-0.99	12.93	12.93	0.00	32.60	34.6
27.80	101692.03	1.98	-0.08	0.15	-0.98	12.26	13.90	1.77	32.60	34.6
27.82	101689.21	2.21	-0.11	0.13	-0.99	12.44	13.78	0.12	32.58	34.4
27.85	101689.21	2.21	-0.09	0.12	-0.99	12.80	12.56	0.98	32.60	34.4
27.87	101689.25	2.21	-0.11	0.13	-0.99	12.01	11.59	1.95	32.60	34.5
27.90	101687.62	2.34	-0.10	0.12	-0.97	11.77	10.00	5.30	32.59	34.6
27.92	101688.84	2.24	-0.11	0.08	-0.96	13.29	7.93	5.00	32.59	34.6
27.94	101688.84	2.24	-0.10	0.07	-0.96	15.79	5.30	5.06	32.59	34.6
27.96	101689.28	2.21	-0.11	0.12	-0.98	16.65	4.57	3.23	32.59	34.4
27.99	101689.28	2.21	-0.09	0.20	-1.00	16.40	3.72	-0.12	32.60	34.4
28.01	101689.60	2.18	-0.08	0.18	-1.01	14.82	4.39	0.37	32.60	34.4
28.03	101689.28	2.21	-0.06	0.19	-1.02	11.16	5.85	-1.04	32.59	34.4
28.06	101689.28	2.21	-0.07	0.12	-1.01	9.21	7.62	2.01	32.59	34.4
28.08	101690.67	2.09	-0.08	0.11	-1.00	9.82	8.48	3.48	32.59	34.6
28.10	101689.38	2.20	-0.09	0.10	-1.00	10.55	8.90	4.51	32.58	34.6
28.13	101689.38	2.20	-0.12	0.11	-1.01	11.83	9.33	2.74	32.58	34.6
28.15	101692.48	1.94	-0.15	0.11	-1.01	13.90	9.76	2.50	32.59	34.4
28.17	101689.78	2.16	-0.09	0.12	-1.02	15.98	10.79	1.34	32.60	34.4
28.19	101689.78	2.16	-0.09	0.11	-0.99	15.98	11.89	1.28	32.60	34.5
28.22	101691.54	2.02	-0.11	0.12	-0.99	15.98	11.40	-0.55	32.59	34.5
28.24	101691.54	2.02	-0.12	0.15	-1.01	15.61	11.52	-3.17	32.60	34.8
28.26	101692.38	1.95	-0.08	0.17	-1.05	15.49	12.74	-4.15	32.60	34.4
28.28	101691.27	2.04	-0.06	0.12	-1.04	15.12	13.90	-2.80	32.59	34.6
28.31	101691.27	2.04	-0.10	0.08	-0.99	15.55	14.51	-2.38	32.59	34.4
28.33	101688.31	2.29	-0.09	0.09	-1.00	16.16	11.59	2.68	32.59	34.3
28.35	101690.33	2.12	-0.07	0.10	-0.97	15.55	9.15	4.45	32.59	34.6
28.38	101690.33	2.12	-0.09	0.14	-0.97	13.84	6.34	7.32	32.59	34.5
28.40	101689.95	2.15	-0.07	0.14	-0.94	11.77	4.76	4.21	32.60	34.6
28.42	101690.84	2.08	-0.07	0.15	-0.93	9.63	4.76	3.23	32.59	34.6
28.45	101690.84	2.08	-0.09	0.15	-0.95	7.93	4.70	3.54	32.59	34.5
28.47	101691.51	2.02	-0.12	0.14	-0.99	7.26	4.94	4.33	32.60	34.4
28.49	101689.98	2.15	-0.10	0.13	-1.01	8.60	6.04	2.01	32.59	34.6
28.52	101689.98	2.15	-0.12	0.10	-1.03	11.04	8.78	1.71	32.59	34.4
28.54	101689.28	2.21	-0.09	0.11	-1.02	13.60	10.73	1.10	32.59	34.4
28.56	101693.08	1.89	-0.10	0.12	-1.00	14.70	13.17	-2.26	32.60	34.4
28.59	101693.08	1.89	-0.11	0.07	-0.97	15.67	13.05	-2.74	32.60	34.6
28.61	101692.48	1.94	-0.08	0.08	-1.01	16.77	10.18	-1.10	32.59	34.5
28.63	101691.51	2.02	-0.10	0.10	-0.99	17.80	8.11	0.55	32.60	34.3
28.66	101691.51	2.02	-0.13	0.10	-0.98	17.74	6.71	4.15	32.60	34.4
28.68	101689.11	2.22	-0.10	0.14	-1.01	17.80	5.61	2.80	32.59	34.6
28.70	101689.11	2.22	-0.09	0.16	-1.01	15.98	5.06	-1.65	32.59	34.4
28.73	101690.84	2.08	-0.07	0.16	-1.02	12.74	5.06	1.46	32.59	34.5
28.75	101688.48	2.27	-0.08	0.12	-0.99	11.40	5.98	-1.16	32.59	34.4
28.77	101688.48	2.14	-0.09	0.11	-0.99	10.73	6.77	-3.78	32.59	34.6
28.80	101690.05	2.14	-0.09	0.07	-0.92	10.91	8.60	-0.98	32.59	34.5
28.82	101689.43	2.19	-0.12	0.07	-0.96	12.20	9.76	4.39	32.60	34.6
28.84	101689.43	2.19	-0.08	0.11	-0.98	12.99	9.76	1.77	32.59	34.7
28.87	101690.22	2.13	-0.06	0.23	-0.97	9.02	9.57	1.71	32.59	34.4
28.89	101689.78	2.16	-0.10	0.21	-0.92	3.41	9.82	7.26	32.60	34.6
28.91	101689.78	2.16	-0.13	0.10	-0.97	1.71	10.00	7.50	32.60	34.5
28.94	101688.24	2.29	-0.10	0.13	-1.13	7.38	7.50	1.89	32.59	34.5
28.96	101692.12	1.97	-0.10	0.08	-1.10	12.26	9.21	-11.28	32.59	34.4
28.99	101692.12	1.97	-0.09	0.00	-1.04	18.72	10.30	-5.06	32.59	34.5
29.01	101689.88	2.16	-0.09	0.06	-1.07	22.62	9.21	0.30	32.59	34.2
29.03	101691.19	2.05	-0.09	0.06	-1.03	22.44	8.29	1.16	32.59	34.6
29.06	101691.19	2.05	-0.06	0.08	-0.99	21.34	7.13	1.46	32.60	34.7
29.08	101688.56	2.26	-0.11	0.07	-0.95	18.78	8.41	-0.49	32.60	34.4
29.10	101690.12	2.14	0.03	0.07	-0.94	17.99	7.99	4.57	32.60	34.5
29.13	101690.12	2.14	-0.09	0.12	-0.97	14.27	10.85	0.79	32.59	34.5
29.15	101687.90	2.32	-0.10	0.17	-0.96	11.22	10.18	-0.37	32.59	34.5
29.18	101688.07	2.31	-0.10	0.11	-0.99	10.79	10.30	0.98	32.59	34.4
29.20	101688.07	2.31	-0.09	0.13	-0.98	10.55	9.88	6.65	32.60	34.6
29.22	101690.30	2.12	-0.13	0.11	-1.00	10.79	8.54	9.21	32.60	34.4
29.25	101689.53	2.18	-0.10	0.10	-1.00	12.32	10.00	6.65	32.59	34.5
29.27	101689.53	2.18	-0.09	0.07	-1.02	14.45	10.43	0.98	32.60	34.5
29.29	101690.47	2.11	-0.10	0.09	-0.98	15.30	10.12	0.24	32.60	34.7
29.32	101690.98	2.06	-0.08	0.11	-0.98	14.02	8.96	0.49	32.60	34.6
29.34	101690.98	2.06	-0.06	0.14	-0.98	12.13	8.78	-1.77	32.60	34.6
29.37	101692.90	1.91	-0.11	0.12	-0.97	9.70	9.09	-5.30	32.60	34.5
29.39	101689.98	2.15	-0.03	0.15	-0.95	7.99	8.05	-7.99	32.59	34.5
29.41	101689.98	2.15	-0.07	0.12	-0.92	5.91	8.23	0.98	32.59	34.4
29.43	101692.58	1.93	-0.15	0.10	-0.93	4.02	6.10	11.52	32.59	34.4
29.46	101689.95	2.15	-0.13	0.08	-0.98	4.88	3.23	8.90	32.60	34.7
29.48	101689.95	2.15	-0.12	0.15	-1.03	8.23	2.99	-1.52	32.60	34.6
29.51	101691.51	2.02	-0.05	0.11	-1.07	9.57	2.93	0.85	32.60	34.5
29.53	101690.57	2.10	-0.14	0.10	-1.07	10.00	2.13	6.04	32.59	34.5
29.55	101690.57	2.10	-0.13	0.08	-1.06	13.60	0.30	0.85	32.59	34.4
29.58	101688.39	2.28	-0.11	0.07	-1.00	17.20	0.67	-1.65	32.60	34.3
29.60	101691.02	2.06	-0.10	0.11	-0.97	17.50	2.62	0.18	32.59	34.4
29.62	101691.02	2.06	-0.16	0.18	-1.02	16.04	3.84	7.26	32.59	34.4
29.64	101692.73	1.92	-0.15	0.17	-1.06	15.91	6.59	10.55	32.60	34.6
29.68	101687.86	2.32	-0.05	0.10	-1.02	17.68	14.33	-1.46	32.60	34.4
29.70	101687.86	2.32	-0.17	0.09	-0.97	19.45	21.16	-4.15	32.59	34.5
29.72	101689.19	2.21	-0.12	0.09	-0.98	19.51	23.66	0.06	32.59	34.6
29.75	101690.50	2.10	-0.12	0.09	-1.02	17.93	23.41	0.91	32.59	34.5
29.77	101690.50	2.10	-0.11	0.09	-0.99	16.71	21.95	-3.11	32.60	34.7
29.79	101689.95	2.15	-0.08	0.18	-0.98	13.96	19.70	1.04	32.60	34.4
29.81	101691.79	2.00	-0.07	0.10	-0.95	9.82	17.62	15.98	32.59	34.5
29.84	101691.79	2.00	-0.09	0.10	-0.94	6.83	13.90	16.40	32.59	34.5
29.86	101691.09	2.05	-0.08	0.05	-0.90	5.06	9.33	7.50	32.59	34.4
29.88	101691.88	1.99	-0.13	0.16	-0.93	4.09	5.79	2.99	32.59	34.5
29.91	101691.88	1.99	-0.09	0.09	-1.02	4.02	0.98	-0.30	32.59	34.4
29.93	101691.86	1.99	-0.14	0.14	-1.01	6.22	-0.12	2.44	32.60	34.7
29.95	101691.86	2.08	-0.09	0.14	-1.04	7.93	0.24	-6.65	32.60	34.6
29.97	101690.81	2.08	-0.07	0.13	-1.01	10.98	2.74	-9.21	32.60	34.4
30.00	101687.27	2.37	-0.06	0.17	-1.00	11.04	5.98	-7.32	32.59	34.5
30.02	101687.27	2.37	-0.16	0.16	-1.03	9.51	6.95	9.27	32.60	34.6
30.04	101691.86	1.99	-0.07	0.09	-1.06	11.28	5.79	10.43	32.60	34.5
30.07	101689.95	2.15	-0.10	0.13	-1.08	13.54	6.77	12.87	32.60	34.5
30.09	101689.95	2.15	-0.17	0.10	-1.07	16.95	7.93	8.41	32.60	34.4
30.11	101691.86	1.99	-0.08	-0.01	-1.00	22.62	9.27	7.20	32.60	34.5
30.14	101689.53	2.18	-0.10	0.03	-0.96	24.51	8.48	8.96	32.59	34.6
30.16	101689.53	2.18	-0.12	0.08	-0.96	25.43	7.07	5.06	32.59	34.6
30.18	101688.14	2.30	-0.12	0.13	-0.97	24.02	5.98	1.95	32.59	34.4
30.21	101688.98	2.23	-0.09	0.15	-0.98	21.77	6.34	-1.59	32.60	34.5
30.23	101688.98	2.23	-0.10	0.17	-0.97	17.38	8.05	-2.62	32.60	34.6
30.25	101689.60	2.18	-0.11	0.13	-0.97	14.21	10.30	-3.05	32.60	34.6
30.28	101690.16	2.13	-0.13	0.08	-0.96	12.50	9.33	3.48	32.59	34.4
30.30	101690.16	2.13	-0.09	0.10	-0.99	11.10	7.80	5.43	32.59	34.4
30.32	101689.62	2.18	-0.08	0.12	-0.99	9.63	8.54	12.50	32.59	34.6
30.35	101690.12	2.14	-0.09	0.10	-0.99	9.15	9.27	19.57	32.60	34.6
30.37	101690.12	2.14	-0.12	0.10	-0.99	10.55	9.09	21.46	32.60	34.5
30.40	101689.78	2.16	-0.12	0.11	-0.99	12.13	9.27	19.88	32.60	34.6
30.42	101691.34	2.04	-0.07	0.07	-0.97	12.74	12.68	19.63	32.60	34.5
30.44	101691.34	2.04	-0.09	0.06	-0.99	13.41	11.04	4.51	32.60	34.3
30.47	101690.47	2.11	-0.12	0.13	-1.03	13.41	6.28	-0.18	32.60	34.4
30.49	101688.73	2.25	-0.15	0.18	-1.01	13.72	4.02	0.98	32.60	34.4
30.51	101688.73	2.25	-0.08	0.11	-0.99	12.74	2.62	8.11	32.60	34.4
30.54	101692.75	1.92	-0.20	0.11	-0.98	14.33	6.95	2.20	32.59	34.3
30.56	101692.10	1.97	-0.12	0.14	-1.02	14.94	11.95	-10.55	32.60	34.5
30.58	101692.10	1.97	-0.07	0.13	-1.06	14.39	19.88	-2.07	32.60	34.6
30.61	101690.74	2.08	-0.07	0.05	-1.02	14.15	23.17	1.52	32.59	34.6
30.63	101690.02	2.14	-0.04	0.13	-0.99	9.76	24.88	6.10	32.60	34.7
30.65	101690.02	2.14	-0.07	0.10	-1.02	7.50	25.12	6.52	32.60	34.5
30.68	101689.53	2.18	-0.08	0.05	-1.03	6.95	22.44	5.18	32.59	34.6
30.70	101689.53	2.18	-0.16	-0.00	-0.99	10.85	19.21	0.61	32.59	34.6
30.72	101688.14	2.30	-0.10	0.05	-0.97	17.99	14.45	-1.71	32.59	34.4
30.75	101688.07	2.31	-0.08	0.09	-0.96	20.98	10.61	6.04	32.59	34.3
30.77	101689.28	2.14	-0.21	0.17	-0.97	18.35	7.93	13.78	32.59	34.6
30.80	101690.05	2.14	-0.10	0.10	-0.99	18.35	3.60	14.33	32.59	34.6
30.82	101687.09	2.39	-0.09	0.11	-0.97	16.95	-1.28	6.71	32.59	34.6
30.84	101687.09	2.39	-0.04	0.09	-1.00	16.95	-4.33	-0.55	32.60	34.5
30.86	101689.43	2.19	-0.10	0.00	-0.95	14.45	-5.55	-9.76	32.60	34.6
30.89	101690.16	2.13	-0.01	0.09	-0.94	15.67	-2.13	-4.76	32.59	34.4
30.91	101690.16	2.13	-0.13	0.06	-0.90	12.99	-1.89	17.01	32.59	34.5
30.94	101690.05	2.14	-0.06	0.11	-0.93	8.72	-1.59	7.99	32.59	34.6
30.96	101690.30	2.12	-0.13	0.16	-0.97	3.17	0.24	10.12	32.60	34.3
30.98	101690.30	2.12	-0.11	0.15	-0.98	0.30	2.20	1.04	32.60	34.4
31.01	101690.81	2.08	-0.13	0.13	-0.96	-0.98	4.94	2.56	32.60	34.5
31.03	101690.20	2.13	-0.15	0.13	-1.01	-1.22	6.34	1.71	32.60	34.6
31.05	101690.20	2.13	-0.08	0.15	-1.01	-0.12	7.13	1.95	32.60	34.5
31.08	101693.32	1.87	-0.16	0.12	-1.07	0.61	8.11	6.46	32.60	34.6
31.10	101691.41	2.03	-0.16	0.04	-1.07	5.67	8.66	-3.23	32.60	34.6
31.12	101691.41	2.03	-0.15	0.01	-1.10	13.54	9.21	-0.37	32.60	34.6
31.15	101690.12	2.14	-0.17	0.11	-1.08	18.48	9.57	0.18	32.60	34.6
31.17	101692.38	1.95	-0.13	0.09	-1.09	20.55	11.95	-1.83	32.60	34.7
31.19	101692.38	1.95	-0.11	0.11	-1.04	22.50	15.49	-1.52	32.60	34.6
31.22	101693.14	1.89	-0.11	0.12	-1.03	21.16	15.98	0.37	32.60	34.3
31.24	101690.81	2.08	-0.10	0.13	-0.99	18.29	16.40	-2.13	32.60	34.4
31.26	101690.81	2.08	-0.12	0.11	-0.96	15.37	15.30	-1.46	32.60	34.3
31.29	101687.90	2.32	-0.10	0.11	-0.93	12.56	15.43	-1.40	32.59	34.6
31.31	101690.98	2.06	-0.09	0.09	-0.93	10.91	16.16	1.77	32.60	34.4
31.33	101690.98	2.06	-0.10	0.10	-0.93	10.98	15.98	3.41	32.60	34.5
31.36	101689.25	2.21	-0.10	0.12	-0.97	11.40	14.15	-2.74	32.60	34.5
31.38	101692.20	1.96	-0.10	0.13	-0.96	12.13	12.26	-5.00	32.60	34.6
31.40	101692.20	1.96	-0.10	0.16	-0.97	11.28	10.30	-3.78	32.60	34.6
31.43	101692.03	1.98	-0.08	0.13	-1.02	9.94	8.90	1.59	32.60	34.4
31.45	101693.77	1.83	-0.09	0.10	-1.01	12.13	8.60	2.26	32.60	34.6
31.48	101693.77	1.83	-0.10	0.08	-1.02	13.78	7.68	1.89	32.60	34.7
31.50	101690.47	2.11	-0.17	0.02	-0.95	15.85	6.59	0.18	32.60	34.5
31.52	101690.12	2.14	-0.12	0.02	-0.95	18.41	3.35	4.45	32.60	34.5
31.55	101690.12	2.14	-0.19	0.13	-1.07	17.56	1.46	5.30	32.60	34.6
31.57	101691.30	2.04	-0.11	0.13	-1.08	17.50	4.88	-5.61	32.58	34.6
31.59	101692.38	1.95	-0.15	0.07	-1.00	18.05	10.30	-13.29	32.60	34.6
31.62	101692.38	1.95	-0.07	0.06	-0.95	19.21	15.24	-12.74	32.60	34.4
31.64	101693.97	1.82	-0.04	0.13	-0.95	14.39	18.78	-8.17	32.59	34.5
31.67	101688.07	2.31	-0.08	0.13	-0.96	10.12	18.96	-8.41	32.59	34.6
31.69	101688.07	2.31	-0.10	0.11	-0.98	5.67	15.98	-7.74	32.59	34.7
31.71	101688.14	2.30	-0.09	0.10	-0.97	4.63	13.72	-4.02	32.59	34.6
31.74	101691.83	1.99	-0.06	0.11	-0.92	2.62	11.71	5.85	32.61	34.5
31.76	101691.83	1.99	-0.10	0.10	-0.94	2.26	8.29	14.33	32.61	34.5
31.79	101690.33	2.12	-0.09	0.03	-0.99	5.24	4.21	9.33	32.59	34.6
31.81	101687.86	2.32	-0.22	0.05	-1.04	9.70	-1.77	-2.87	32.60	34.6
31.83	101687.86	2.32	-0.09	0.06	-1.05	15.85	-6.59	0.00	32.60	34.5
31.86	101689.36	2.20	-0.09	0.11	-1.05	18.35	-7.01	3.90	32.59	34.5
31.88	101694.70	1.76	-0.10	0.10	-1.04	19.82	-5.61	3.17	32.60	34.6
31.90	101694.70	1.76	-0.14	0.08	-1.04	19.94	-2.07	-0.43	32.60	34.6
31.93	101692.03	1.98	-0.11	0.12	-1.04	17.93	2.56	-1.83	32.60	34.5
31.95	101694.26	1.79	-0.13	0.09	-0.99	16.28	6.65	-1.89	32.61	34.6
31.97	101694.26	1.79	-0.10	0.09	-0.96	15.67	10.85	-2.38	32.61	34.5
32.00	101689.62	2.18	-0.11	0.09	-0.97	13.84	15.43	-0.06	32.59	34.6
32.02	101691.09	2.05	-0.15	0.11	-0.96	13.05	17.07	1.52	32.59	34.5
32.05	101691.09	2.05	-0.15	0.07	-0.94	12.07	15.79	-2.38	32.59	34.6
32.07	101690.95	2.07	-0.16	0.09	-0.96	11.59	13.96	-5.06	32.58	34.4
32.09	101689.53	2.18	-0.10	0.03	-0.96	12.26	11.71	-1.16	32.59	34.5
32.12	101689.53	2.18	-0.08	0.08	-0.95	12.62	10.43	7.26	32.59	34.5
32.14	101692.66	1.93	-0.11	0.11	-0.99	11.83	9.63	8.29	32.59	34.6
32.16	101692.66	1.91	-0.10	0.05	-0.98	12.38	9.51	4.51	32.60	34.6
32.19	101692.90	1.91	-0.15	0.10	-1.04	12.74	7.50	6.22	32.60	34.4
32.21	101693.39	1.86	-0.13	0.14	-1.04	12.13	7.44	3.66	32.61	34.3
32.24	101692.12	1.97	-0.11	0.11	-1.06	11.52	10.43	-1.22	32.59	34.5
32.26	101692.12	1.97	-0.14	0.07	-1.04	13.96	12.62	0.67	32.59	34.5
32.28	101690.74	2.08	-0.11	0.06	-1.00	16.04	13.54	2.01	32.59	34.5
32.31	101692.88	1.91	-0.11	0.08	-0.99	15.30	15.43	7.26	32.61	34.3
32.33	101692.88	1.91	-0.08	0.08	-1.01	15.00	16.22	6.34	32.61	34.7
32.35	101689.98	2.15	-0.13	0.05	-0.96	13.48	16.59	4.82	32.59	34.7
32.38	101688.81	2.24	-0.12	0.07	-0.96	11.65	15.00	3.48	32.60	34.5
32.41	101688.81	2.24	-0.09	0.09	-0.97	11.22	12.80	3.35	32.60	34.4
32.43	101690.72	2.09	-0.03	0.20	-0.96	8.78	13.54	-3.35	32.60	34.4
32.45	101690.47	2.11	-0.09	0.20	-0.99	3.96	14.57	2.87	32.60	34.5
32.47	101690.47	2.11	-0.09	0.12	-0.98	1.95	13.72	2.20	32.60	34.6
32.50	101690.37	2.12	-0.15	0.09	-1.01	2.99	11.77	-4.15	32.60	34.4
32.52	101690.37	2.12	-0.07	0.01	-1.00	7.26	11.77	-1.83	32.60	34.4
32.54	101690.81	2.08	-0.09	0.03	-0.99	12.26	10.61	1.71	32.60	34.6
32.58	101691.16	2.05	-0.10	0.08	-1.05	17.07	8.41	6.77	32.60	34.9
32.60	101688.05	2.31	-0.09	0.10	-1.05	17.20	6.59	0.43	32.60	34.4
32.62	101688.05	2.31	-0.09	0.10	-1.00	16.71	5.12	0.49	32.60	34.5
32.64	101689.95	2.15	-0.06	0.05	-0.97	16.89	4.27	5.61	32.60	34.6
32.81	101690.57	1.97	-0.11	0.13	-0.96	7.01	14.51	-0.18	32.60	34.4
33.05	101692.17	1.97	-0.12	0.09	-1.01	12.44	13.90	-0.55	32.61	34.5
33.29	101690.47	2.11	-0.08	0.17	-0.93	9.51	11.95	-4.88	32.60	34.5
33.64	101690.98	2.06	-0.09	0.11	-0.94	10.30	15.37	-4.82	32.60	34.6
33.86	101689.78	2.16	-0.08	0.11	-0.95	15.18	11.22	3.11	32.60	34.5
33.88	101691.48	2.02	-0.07	0.13	-0.98	11.28	14.02	-2.26	32.61	34.5
33.90	101691.48	2.02	-0.08	0.11	-0.97	8.17	14.94	-4.88	32.61	34.4
33.92	101691.23	2.04	-0.07	0.04	-0.95	7.99	12.99	11.16	32.60	34.5
33.95	101691.23	2.04	-0.05	0.08	-0.98	6.83	10.30	2.44	32.61	34.4
33.97	101692.00	1.98	-0.09	0.12	-0.99	6.52	7.80	5.18	32.61	34.3
33.99	101691.58	2.02	-0.07	0.13	-1.00	5.12	5.61	4.02	32.60	34.4
34.02	101691.58	2.02	-0.07	0.11	-0.97	4.51	4.09	0.37	32.60	34.5
34.04	101690.37	2.12	-0.08	0.12	-0.98	4.09	3.35	-0.91	32.60	34.4
34.06	101690.47	2.11	-0.06	0.14	-1.01	3.05	3.05	6.04	32.60	34.5
34.08	101690.47	2.11	-0.10	0.10	-1.00	5.61	5.12	7.56	32.60	34.4
34.11	101692.00	1.98	-0.09	0.04	-1.00	8.96	5.61	3.90	32.61	34.7
34.13	101696.09	1.64	-0.14	0.02	-0.99	12.87	4.88	3.11	32.60	34.4
34.15	101696.09	1.64	-0.14	0.11	-1.00	14.33	4.21	8.11	32.60	34.3
34.17	101692.27	1.96	-0.07	0.09	-1.03	15.18	5.55	5.18	32.60	34.6
34.20	101692.62	1.93	-0.07	0.12	-1.03	15.12	6.77	5.18	32.60	34.6
34.22	101692.62	1.93	-0.11	0.11	-1.04	13.72	6.28	11.71	32.60	34.6
34.25	101695.47	1.69	-0.07	0.15	-1.04	12.32	5.49	9.45	32.61	34.5
34.27	101692.95	1.90	-0.08	0.14	-1.04	11.52	6.95	2.87	32.61	34.6
34.29	101692.95	1.90	-0.12	0.12	-1.02	11.16	9.09	2.01	32.61	34.3
34.31	101693.25	1.88	-0.14	0.08	-1.01	12.20	9.88	7.07	32.60	34.6
34.34	101693.25	1.88	-0.19	0.02	-0.99	15.12	10.12	12.20	32.60	34.5
34.36	101690.47	2.11	-0.09	0.09	-0.98	18.11	11.46	4.33	32.60	34.5
34.38	101693.91	1.82	-0.10	0.09	-1.02	19.51	14.33	5.43	32.62	34.4
34.41	101693.91	1.82	-0.09	0.08	-1.02	20.30	14.27	5.12	32.61	34.7
34.43	101689.23	2.21	-0.10	0.03	-1.00	21.46	10.12	13.72	32.61	34.3
34.45	101694.26	1.79	-0.09	-0.02	-0.97	23.96	7.62	12.44	32.61	34.5
34.48	101694.26	1.79	-0.15	0.09	-0.96	25.30	5.18	4.21	32.61	34.5
34.50	101693.73	1.84	-0.05	0.13	-1.01	22.93	4.70	0.85	32.62	34.6
34.52	101693.84	1.83	-0.10	0.13	-0.98	18.96	3.60	0.00	32.60	34.5
34.55	101693.84	1.83	-0.18	0.06	-0.94	16.83	1.95	-2.26	32.60	34.4
34.57	101693.81	1.83	-0.22	-0.01	-0.94	14.63	6.22	-2.62	32.61	34.4
34.59	101695.20	1.71	-0.15	0.06	-0.99	11.04	9.57	-0.55	32.61	34.6
34.62	101695.20	1.71	-0.12	0.03	-1.01	9.63	12.87	-3.66	32.61	34.6
34.64	101690.81	2.08	-0.10	0.06	-1.01	9.15	14.76	-1.89	32.60	34.6
34.66	101690.81	2.08	-0.06	0.09	-1.01	9.02	17.44	0.37	32.62	34.5
34.68	101693.22	1.88	-0.10	0.10	-1.05	9.51	18.84	6.65	32.62	34.5
34.70	101692.95	1.90	-0.09	0.05	-1.06	12.20	16.40	3.11	32.61	34.5
34.73	101692.95	1.90	-0.12	0.00	-0.99	16.16	9.45	-1.16	32.61	34.6
34.75	101692.88	1.91	-0.06	0.06	-0.97	18.05	1.83	-1.16	32.61	34.5
34.78	101692.00	1.98	-0.11	0.10	-0.99	17.74	-1.95	2.26	32.61	34.6
34.80	101692.00	1.98	-0.13	0.08	-0.97	16.52	-3.23	9.27	32.61	34.5
34.82	101693.91	1.82	-0.08	0.06	-0.98	17.80	-1.04	6.28	32.61	34.6
34.84	101693.56	1.85	-0.10	0.07	-0.96	17.68	0.79	8.90	32.61	34.6
34.87	101693.56	1.85	-0.06	0.13	-0.93	16.77	2.01	7.99	32.61	34.4
34.89	101695.47	1.69	-0.14	0.05	-0.97	15.43	2.99	3.60	32.62	34.4
34.91	101690.79	2.08	-0.12	0.09	-0.99	16.40	3.05	-6.77	32.62	34.5
34.94	101690.79	2.08	-0.08	0.08	-1.00	14.76	6.95	-10.61	32.62	34.5
34.96	101692.00	1.98	-0.09	0.01	-0.96	11.46	10.24	-7.01	32.61	34.4
34.98	101693.05	1.89	-0.11	0.08	-0.97	8.35	10.67	1.52	32.62	34.7
35.01	101693.05	1.89	-0.15	0.10	-1.01	5.06	8.84	9.33	32.62	34.5
35.03	101693.56	1.85	-0.12	0.08	-1.01	3.90	6.40	9.27	32.61	34.5
35.05	101693.56	1.85	-0.13	0.07	-0.99	4.88	5.55	8.78	32.61	34.4
35.08	101692.25	1.96	-0.13	0.05	-1.03	6.28	7.07	10.24	32.61	34.5
35.10	101692.77	1.92	-0.09	-0.02	-0.99	8.66	8.11	7.50	32.61	34.5
35.12	101692.77	1.92	-0.09	0.04	-0.98	12.13	11.04	-1.46	32.61	34.5
35.14	101692.70	1.92	-0.11	0.10	-1.04	14.63	13.66	-4.70	32.61	34.5
35.17	101695.02	1.73	-0.12	0.10	-1.04	16.40	12.93	-6.22	32.61	34.3
35.19	101695.02	1.73	-0.18	0.12	-1.02	18.23	9.88	-4.82	32.61	34.4
35.21	101694.09	1.81	-0.14	0.11	-0.99	17.74	7.01	-2.99	32.61	34.6
35.23	101690.27	2.12	-0.14	0.09	-0.98	16.28	5.91	2.87	32.61	34.6
35.26	101690.27	2.12	-0.10	0.12	-1.00	11.77	6.34	2.74	32.61	34.5
35.28	101688.19	2.30	-0.01	0.30	-0.99	9.21	10.67	-15.55	32.61	34.6
35.31	101691.83	1.99	-0.13	0.00	-0.94	8.35	15.12	-9.02	32.62	34.5
35.33	101691.83	1.99	-0.16	-0.16	-0.88	13.84	12.20	18.54	32.62	34.5
35.35	101690.27	2.12	-0.12	0.03	-0.93	18.60	8.05	16.71	32.61	34.5
35.37	101690.27	2.12	-0.14	0.11	-1.04	18.48	7.80	0.00	32.61	34.3
35.40	101692.70	1.92	-0.11	0.04	-1.00	20.00	8.23	-6.46	32.61	34.4
35.42	101691.66	2.01	-0.11	0.02	-0.97	17.32	6.95	-8.17	32.62	34.6
35.44	101691.66	2.01	-0.11	0.10	-1.01	14.76	6.83	-7.62	32.62	34.5
35.47	101693.73	1.84	-0.05	0.09	-1.03	10.43	10.79	1.40	32.62	34.4
35.49	101690.79	2.08	-0.08	0.07	-1.01	8.90	16.16	4.82	32.61	34.3
35.51	101690.79	2.08	-0.11	0.10	-1.01	9.45	18.35	2.68	32.61	34.6
35.54	101693.73	1.84	-0.08	0.16	-1.02	5.30	17.99	-0.12	32.62	34.6
35.56	101690.34	2.12	-0.11	0.09	-1.02	1.89	17.32	0.24	32.61	34.5
35.58	101690.34	2.12	-0.15	-0.01	-0.98	1.83	14.39	4.70	32.61	34.5
35.61	101692.08	1.97	-0.17	-0.01	-0.92	3.96	9.45	2.32	32.61	34.5
35.63	101691.03	2.06	-0.16	0.11	-0.99	5.37	6.34	11.59	32.61	34.5
35.65	101691.03	2.06	-0.05	0.18	-1.09	8.78	10.12	5.55	32.61	34.5
35.68	101690.79	2.08	-0.06	0.08	-1.06	12.32	15.98	-1.10	32.61	34.3
35.70	101691.48	2.02	-0.11	-0.01	-0.95	15.30	16.28	0.12	32.61	34.4
35.72	101691.48	2.02	-0.12	0.03	-1.00	18.78	9.45	-5.18	32.61	34.4
35.74	101689.41	2.20	-0.12	0.04	-1.03	19.63	2.13	-8.23	32.61	34.5
35.77	101689.41	2.20	-0.10	0.05	-1.04	18.84	-0.43	-5.67	32.61	34.5
35.79	101691.03	2.06	-0.11	0.06	-0.96	19.63	1.28	-15.06	32.61	34.4
35.82	101691.83	1.99	-0.11	0.08	-0.99	16.83	2.62	-6.95	32.61	34.4
35.84	101691.83	1.99	-0.10	0.08	-1.03	14.88	5.61	-1.28	32.62	34.5
35.86	101694.09	1.81	-0.11	0.11	-1.02	12.80	8.17	-3.41	32.62	34.4
35.88	101690.96	2.07	-0.11	0.05	-0.99	12.56	9.27	-5.06	32.61	34.4
35.91	101690.96	2.07	-0.09	0.02	-0.96	12.93	9.94	-3.72	32.62	34.6
35.93	101692.88	1.91	-0.10	0.04	-0.97	13.17	12.38	-3.29	32.62	34.5
35.95	101691.83	1.99	-0.12	0.04	-0.96	13.29	14.70	-4.51	32.62	34.6
35.97	101691.83	1.99	-0.13	0.05	-0.96	12.68	16.04	-7.44	32.62	34.4
36.00	101690.44	2.11	-0.12	0.02	-0.94	12.20	14.70	-5.30	32.61	34.4
36.02	101690.96	2.07	-0.12	0.04	-0.95	9.94	13.11	1.10	32.62	34.4
36.04	101690.96	2.07	-0.11	0.10	-0.96	6.71	10.79	-5.67	32.62	34.5
36.07	101694.33	1.79	-0.10	0.12	-0.96	2.32	9.27	-5.06	32.61	34.4
36.09	101694.33	1.79	-0.06	0.11	-0.96	-1.22	8.84	0.55	32.62	34.6
36.11	101692.08	1.97	-0.06	0.08	-0.93	-3.05	8.41	8.41	32.62	34.5
36.14	101691.83	1.99	-0.12	0.07	-0.92	-3.96	4.39	6.16	32.61	34.6
36.16	101691.83	1.99	-0.12	0.06	-0.96	-1.77	-0.73	-7.20	32.62	34.5
36.18	101691.31	2.04	-0.09	0.11	-0.99	0.24	-5.73	-6.95	32.62	34.6
36.20	101692.88	1.91	-0.10	0.17	-1.01	-0.18	-8.66	3.23	32.62	34.4
36.23	101692.88	1.91	-0.09	0.20	-1.05	-0.79	-9.02	0.12	32.62	34.6
36.25	101692.25	1.96	-0.17	0.10	-1.04	0.61	-9.15	-10.49	32.61	34.6
36.27	101694.95	1.73	-0.21	0.09	-1.04	2.56	-10.49	-23.72	32.62	34.4
36.30	101694.95	1.73	-0.17	0.09	-1.03	5.61	-7.62	-13.54	32.62	34.6
36.32	101689.84	2.16	-0.11	0.13	-1.00	10.91	-0.85	-12.20	32.60	34.5
36.34	101693.47	1.86	-0.13	0.11	-1.04	15.06	3.66	-17.13	32.62	34.4
36.37	101693.47	1.86	-0.21	0.02	-0.94	19.94	3.23	-9.51	32.62	34.6
36.39	101691.38	2.03	-0.17	-0.03	-1.00	17.01	2.44	3.41	32.61	34.5
36.41	101693.12	1.89	-0.03	0.22	-0.94	19.21	-4.94	1.16	32.62	34.6
36.44	101693.12	1.89	-0.30	0.10	-1.06	15.37	-0.61	-15.00	32.62	34.3
36.46	101691.48	2.02	-0.23	0.00	-1.06	22.50	-5.61	-17.01	32.61	34.5
36.49	101691.48	2.02	-0.17	0.09	-0.99	32.44	-6.22	-2.74	32.61	34.6
36.52	101691.48	2.02	-0.22	0.24	-0.86	25.18	-4.33	-7.26	32.62	34.5
36.54	101694.16	1.80	-0.22	0.20	-0.93	18.11	-1.34	-29.76	32.62	34.6
36.56	101692.70	1.92	-0.24	0.02	-1.03	18.90	0.00	-32.87	32.62	34.5
36.58	101692.70	1.92	-0.11	0.07	-0.94	20.73	2.56	-12.56	32.62	34.6
36.61	101693.29	1.87	-0.17	0.14	-0.91	15.61	7.93	-5.06	32.62	34.3
36.63	101696.45	1.61	-0.21	0.05	-0.92	13.48	12.68	-18.11	32.63	34.4
36.65	101696.45	1.61	-0.18	0.04	-1.00	16.22	16.52	-28.60	32.63	34.5
36.68	101693.22	1.88	-0.08	0.01	-1.08	19.88	21.95	-10.91	32.61	34.5
36.70	101693.73	1.84	-0.24	0.05	-0.94	22.56	18.66	-8.17	32.61	34.6
36.73	101693.73	1.84	-0.23	-0.01	-1.01	23.78	11.16	-13.35	32.61	34.3
36.75	101694.61	1.76	-0.20	0.01	-0.97	26.65	5.85	-10.12	32.62	34.5
36.77	101690.09	2.14	-0.18	0.04	-0.92	27.93	4.02	-13.17	32.62	34.6
36.79	101690.09	2.14	-0.16	-0.00	-0.95	29.76	5.00	-14.76	32.62	34.6
36.81	101690.44	2.11	-0.23	-0.03	-0.98	29.02	1.52	-3.23	32.62	34.3
36.84	101691.13	2.05	-0.26	0.09	-0.93	24.15	-2.50	-3.11	32.62	34.5
36.87	101691.13	2.05	-0.09	0.09	-0.92	17.38	-0.43	-3.17	32.62	34.6
36.89	101690.73	2.08	-0.24	0.07	-0.90	11.34	4.33	2.56	32.63	34.5
36.91	101691.48	2.02	-0.01	0.03	-0.97	8.48	6.34	-1.77	32.62	34.6
36.94	101691.48	2.02	-0.24	0.07	-0.96	5.49	4.02	-12.32	32.62	34.6
36.96	101690.69	2.09	-0.24	0.07	-0.96	0.12	0.91	-17.74	32.61	34.6
36.98	101690.69	2.09	-0.29	0.03	-0.94	-5.67	-3.23	-14.39	32.62	34.3
37.00	101691.13	2.05	-0.24	-0.05	-0.95	-5.55	-3.54	-20.55	32.62	34.4
37.03	101692.64	1.93	-0.31	-0.09	-0.93	-0.12	-4.39	-33.11	32.63	34.5
37.05	101692.64	1.93	-0.27	-0.09	-0.98	3.41	-7.62	-35.61	32.62	34.6
37.08	101689.23	2.21	-0.20	-0.06	-1.01	6.28	-7.93	-32.62	32.62	34.5
37.10	101689.23	2.21	-0.11	-0.02	-1.06	7.62	-3.60	-23.23	32.62	34.4
37.12	101689.23	2.21	-0.03	-0.06	-1.04	7.62	6.28	-11.10	32.62	34.6
37.14	101689.05	2.22	0.04	-0.02	-0.98	10.85	18.29	2.80	32.62	34.5
37.16	101693.50	1.86	-0.18	-0.04	-0.96	11.89	24.39	-3.23	32.63	34.4
37.19	101693.50	1.86	-0.32	-0.00	-0.99	10.91	22.01	-0.55	32.63	34.5
37.22	101692.30	1.96	-0.32	-0.00	-0.94	7.50	16.71	-3.23	32.63	34.4
37.24	101689.99	2.15	-0.08	-0.00	-0.97	7.50	18.78	5.12	32.62	34.4
37.26	101689.99	2.15	0.04	0.01	-1.05	7.62	22.99	9.02	32.62	34.5
37.28	101691.66	2.01	-0.26	-0.01	-1.07	8.96	21.95	-12.20	32.62	34.4
37.31	101691.31	2.04	-0.34	-0.01	-1.04	12.26	13.60	-9.82	32.62	34.4
37.33	101691.31	2.04	-0.26	0.03	-0.99	13.23	5.61	3.78	32.62	34.6
37.35	101693.98	1.82	-0.12	0.08	-0.95	9.02	5.55	11.65	32.62	34.8
37.38	101689.05	2.22	-0.09	0.02	-0.95	7.80	10.79	5.61	32.62	34.7
37.40	101689.05	2.22	-0.18	0.02	-0.95	7.80	13.29	-1.83	32.62	34.4
37.42	101693.44	1.86	-0.29	-0.00	-0.96	9.76	7.62	-0.49	32.63	34.6
37.45	101693.64	1.84	-0.23	-0.06	-1.01	13.66	1.04	12.99	32.62	34.4
37.47	101693.64	1.84	-0.08	-0.03	-0.99	18.96	1.89	16.71	32.62	34.5
37.49	101694.85	1.74	-0.12	0.11	-0.94	20.37	9.51	3.84	32.62	34.4
37.52	101694.85	1.87	-0.24	0.07	-1.00	19.27	11.52	-3.84	32.62	34.3
37.54	101692.52	1.94	-0.34	0.03	-1.01	19.82	6.22	-0.79	32.62	34.5
37.56	101690.96	2.07	-0.30	0.01	-0.98	20.61	3.90	0.91	32.62	34.6
37.59	101690.96	2.07	-0.08	0.04	-0.91	18.35	9.76	-0.91	32.62	34.5
37.61	101692.95	1.90	-0.09	0.08	-0.90	12.87	19.15	-5.98	32.62	34.5
37.63	101692.70	1.92	-0.17	0.09	-0.97	7.44	23.41	-11.89	32.62	34.5
37.65	101692.70	1.92	-0.30	-0.03	-1.01	5.98	20.06	-7.68	32.62	34.5
37.68	101694.50	1.77	-0.24	-0.06	-0.98	10.24	13.72	1.89	32.62	34.5
37.70	101692.42	1.95	-0.17	0.00	-0.98	12.50	11.16	4.82	32.62	34.3
37.73	101692.42	1.95	-0.18	-0.00	-0.97	15.61	10.73	0.55	32.62	34.4
37.75	101693.47	1.86	-0.19	0.05	-0.95	15.24	9.57	-3.29	32.62	34.4
37.77	101696.62	1.60	-0.13	0.04	-0.97	14.76	11.04	-5.00	32.63	34.4
37.80	101696.62	1.60	-0.18	0.10	-0.97	10.49	13.41	-0.06	32.63	34.6
37.82	101692.70	1.92	-0.22	0.02	-0.99	10.18	14.39	-8.05	32.62	34.4
37.84	101691.48	2.02	-0.20	-0.03	-1.00	12.38	14.51	-16.46	32.62	34.6
37.87	101691.48	2.02	-0.15	-0.04	-1.02	14.94	14.39	-10.00	32.62	34.3
37.89	101691.48	2.02	-0.16	-0.06	-1.00	16.16	11.89	5.55	32.62	34.5
37.91	101693.47	1.86	-0.20	0.06	-0.99	14.15	8.35	11.04	32.62	34.4
37.94	101693.47	1.86	-0.16	-0.07	-1.02	16.71	7.07	6.04	32.62	34.6
37.96	101691.20	2.05	-0.09	-0.05	-1.02	21.46	8.23	5.73	32.62	34.6
37.98	101690.34	2.12	-0.20	-0.01	-0.91	21.52	8.11	7.56	32.62	34.4
38.01	101690.34	2.12	-0.18	0.20	-0.96	11.77	7.26	18.60	32.62	34.5
38.03	101689.75	2.17	-0.25	0.04	-0.98	8.72	6.89	2.68	32.61	34.4
38.05	101689.75	2.17	-0.20	-0.11	-1.05	13.96	5.24	-3.05	32.62	34.4
38.08	101694.85	1.74	-0.25	-0.03	-1.03	19.09	1.95	11.83	32.62	34.3
38.10	101697.45	1.53	-0.23	0.05	-0.95	17.80	-1.89	14.09	32.62	34.4
38.12	101697.45	1.53	-0.18	0.07	-0.90	14.09	-1.34	8.23	32.62	34.6
38.14	101694.61	1.76	-0.11	0.05	-0.90	9.70	6.22	-6.10	32.62	34.5
38.17	101690.61	2.10	-0.07	0.04	-0.94	7.68	16.52	-8.60	32.62	34.6
38.19	101690.61	2.10	-0.20	0.07	-0.97	3.66	21.46	-7.80	32.62	34.4
38.21	101694.72	1.75	-0.30	0.02	-0.90	-1.10	20.18	-7.74	32.63	34.4
38.23	101693.56	1.85	-0.21	-0.08	-0.89	0.18	20.00	-10.00	32.62	34.4
38.26	101693.56	1.85	-0.05	0.07	-0.96	1.22	25.85	-1.83	32.62	34.6
38.28	101691.90	1.99	-0.22	0.04	-1.11	-0.98	27.01	-2.62	32.62	34.6
38.31	101690.73	2.08	-0.36	0.01	-0.97	8.05	17.20	-6.28	32.63	34.4
38.33	101690.73	2.08	-0.23	0.07	-1.00	10.00	7.93	-2.13	32.63	34.5
38.35	101694.85	1.74	-0.21	0.09	-0.98	11.22	2.50	4.02	32.61	34.6
38.37	101693.64	1.78	-0.17	0.08	-0.96	11.10	-0.73	6.65	32.62	34.6
38.40	101694.44	1.78	-0.13	0.04	-0.96	12.80	0.79	2.56	32.62	34.4
38.42	101691.55	2.02	-0.15	0.06	-0.89	12.44	2.44	-5.18	32.62	34.4
38.45	101694.72	1.75	-0.26	0.06	-0.96	8.23	1.59	-8.54	32.63	34.5
38.47	101694.72	1.75	-0.15	0.02	-1.02	6.59	0.73	-6.65	32.63	34.6
38.49	101691.66	2.01	-0.11	-0.01	-0.97	8.60	1.95	2.56	32.62	34.6
38.51	101691.66	2.01	-0.03	-0.01	-1.03	8.48	6.89	10.00	32.61	34.5
38.53	101692.59	1.93	-0.06	-0.05	-1.02	10.79	11.28	14.27	32.61	34.6
38.56	101694.78	1.75	-0.10	-0.03	-1.02	13.72	11.71	15.67	32.62	34.3
38.58	101694.78	1.75	-0.09	-0.07	-1.07	18.23	10.85	15.73	32.62	34.4
38.61	101695.02	1.73	-0.13	-0.12	-1.10	26.40	8.48	28.60	32.62	34.7
38.63	101694.68	1.76	-0.18	0.04	-1.01	29.02	4.45	41.65	32.62	34.6
38.65	101694.68	1.76	-0.13	0.06	-1.03	27.01	4.39	37.07	32.62	34.4
38.68	101692.12	1.97	-0.30	-0.03	-1.09	31.28	5.06	26.16	32.63	34.5
38.70	101692.95	1.90	-0.13	-0.12	-1.03	37.74	7.20	40.85	32.62	34.4
38.72	101692.95	1.90	-0.15	-0.10	-0.98	42.74	9.33	58.84	32.62	34.3
38.75	101696.45	1.61	-0.16	-0.05	-0.93	44.51	12.50	57.87	32.63	34.6
38.77	101690.09	2.14	-0.37	0.03	-0.98	43.11	6.04	46.34	32.62	34.6
38.79	101690.09	2.14	-0.28	0.06	-0.95	32.38	-7.56	62.44	32.62	34.4
38.82	101692.25	1.96	-0.14	0.01	-0.90	27.56	-8.41	61.34	32.62	34.6
38.84	101694.03	1.81	0.02	0.09	-0.85	20.85	7.44	35.30	32.63	34.6
38.86	101694.03	1.81	-0.05	0.03	-0.87	12.93	22.56	24.21	32.63	34.7
38.89	101692.35	1.95	-0.40	0.04	-0.93	8.35	22.62	24.88	32.62	34.4
38.91	101691.03	2.06	-0.34	0.17	-0.95	-2.26	17.56	22.01	32.62	34.5
38.93	101691.03	2.06	-0.23	0.05	-0.90	-10.30	17.74	8.41	32.62	34.6
38.96	101696.11	1.64	-0.17	0.03	-0.97	-16.22	21.95	9.21	32.63	34.4
38.98	101692.70	1.92	-0.23	0.00	-0.97	-17.32	23.29	10.00	32.62	34.6
39.01	101692.70	1.92	-0.32	-0.04	-1.01	-14.63	18.48	2.68	32.62	34.4
39.03	101693.86	1.83	-0.19	-0.07	-1.02	-8.66	13.96	4.94	32.63	34.6
39.05	101693.86	1.97	-0.15	-0.08	-1.03	-0.61	12.80	0.98	32.62	34.6
39.07	101692.08	1.97	-0.25	-0.09	-1.05	8.84	8.11	8.11	32.62	34.6
39.10	101694.12	1.80	-0.26	-0.02	-1.02	14.94	-1.16	21.95	32.63	34.4
39.12	101694.12	1.80	-0.22	0.07	-0.98	16.83	-7.32	21.65	32.62	34.6
39.14	101695.55	1.69	-0.22	0.09	-0.97	15.06	-9.15	21.10	32.62	34.4
39.17	101691.03	2.06	-0.19	0.10	-0.96	12.44	-6.95	15.61	32.62	34.5
39.19	101691.03	2.06	-0.10	0.06	-0.91	9.51	0.79	11.22	32.62	34.4
39.21	101693.47	1.86	-0.19	0.04	-0.96	8.05	7.44	11.04	32.62	34.4
39.23	101692.81	1.91	-0.23	0.03	-0.99	7.74	10.61	10.30	32.63	34.3
39.26	101692.81	1.91	-0.14	0.09	-1.00	8.17	14.63	4.39	32.63	34.6
39.28	101692.59	1.93	-0.28	0.05	-1.03	10.85	14.33	3.05	32.62	34.6
39.31	101692.98	1.90	-0.20	0.06	-0.98	13.17	12.68	4.76	32.63	34.6
39.34	101692.98	1.74	-0.15	0.10	-0.94	11.28	17.20	9.76	32.63	34.6
39.36	101694.83	1.74	-0.21	-0.03	-0.97	15.73	17.01	7.38	32.63	34.5
39.38	101692.42	1.95	-0.17	0.06	-0.97	17.99	19.02	6.22	32.62	34.4
39.41	101692.42	1.95	-0.17	0.06	-1.01	17.93	19.02	14.39	32.63	34.6
39.43	101691.35	2.03	-0.20	0.02	-1.01	19.94	17.44	15.98	32.63	34.5
39.45	101691.90	1.99	-0.07	-0.00	-0.98	23.41	19.33	26.04	32.62	34.5
39.47	101691.90	1.99	-0.03	0.00	-0.99	27.07	25.00	29.21	32.62	34.5
39.50	101694.72	1.75	-0.10	0.02	-0.95	31.65	31.95	24.94	32.63	34.5
39.52	101690.38	2.11	-0.14	0.05	-0.96	32.07	33.17	32.62	32.63	34.5
39.55	101690.38	2.11	-0.16	0.05	-0.96	30.49	30.67	49.70	32.63	34.5
39.57	101689.34	2.20	-0.16	0.02	-0.94	30.98	30.00	45.37	32.63	34.4
39.59	101691.88	1.99	-0.16	0.04	-0.93	31.28	30.61	39.02	32.63	34.7
39.62	101691.88	1.99	-0.18	0.08	-0.94	28.78	29.70	39.88	32.63	34.6
39.64	101693.95	1.82	-0.18	0.09	-0.97	24.33	26.40	47.62	32.63	34.4
39.66	101693.16	1.88	-0.17	0.05	-0.96	20.67	22.50	46.95	32.63	34.4
39.69	101693.16	1.88	-0.19	0.18	-1.00	18.23	20.12	28.35	32.63	34.4
39.71	101695.07	1.73	-0.18	0.17	-1.02	11.89	17.26	29.82	32.63	34.5
39.73	101694.03	1.81	-0.16	0.13	-1.00	7.80	14.09	28.60	32.64	34.4
39.76	101694.03	1.81	-0.20	0.06	-0.98	6.40	12.62	21.40	32.64	34.5
39.78	101691.95	1.98	-0.12	-0.06	-0.96	9.76	13.41	17.26	32.63	34.7
39.80	101691.25	2.04	-0.11	0.00	-1.00	15.00	15.06	7.07	32.63	34.6
39.83	101691.25	2.04	-0.16	0.12	-1.01	14.27	12.50	10.24	32.63	34.3
39.85	101688.78	2.25	-0.24	0.16	-1.03	8.11	6.46	5.00	32.61	34.4
39.88	101694.38	1.78	-0.18	0.02	-1.03	7.93	1.89	-3.90	32.63	34.5
39.90	101694.38	1.78	-0.13	0.01	-1.03	10.18	0.98	-8.78	32.63	34.4
39.92	101694.55	1.77	-0.09	0.04	-1.01	10.43	2.07	-4.82	32.64	34.4
39.95	101689.30	2.20	-0.06	0.03	-1.01	9.63	6.10	-4.15	32.61	34.4
39.97	101689.30	2.20	-0.08	0.05	-1.01	9.15	8.90	-2.87	32.61	34.4
39.99	101692.00	1.98	-0.11	-0.00	-0.97	9.70	10.73	-1.59	32.62	34.5
40.02	101692.00	1.90	-0.12	0.09	-0.93	7.87	14.21	-10.73	32.62	34.4
40.04	101692.95	1.90	-0.10	0.14	-0.95	-0.18	16.46	-8.54	32.62	34.4
40.06	101695.34	1.70	-0.11	0.00	-1.01	-1.22	16.89	-1.59	32.63	34.6
40.09	101694.38	1.78	-0.10	-0.09	-1.04	6.46	14.70	4.27	32.63	34.5
40.11	101694.38	1.78	-0.13	-0.04	-1.04	14.94	12.74	2.07	32.63	34.6
40.13	101692.64	1.93	-0.13	0.06	-1.01	17.93	11.52	-2.01	32.63	34.5
40.16	101692.64	1.93	-0.17	0.12	-0.99	15.61	9.45	0.73	32.63	34.7
40.18	101694.72	1.75	-0.12	0.09	-0.97	12.20	8.35	2.80	32.63	34.4
40.20	101692.81	1.91	-0.11	0.03	-0.99	12.20	8.48	2.87	32.63	34.5
40.23	101692.81	1.91	-0.08	-0.03	-1.00	15.30	8.17	6.04	32.62	34.5
40.25	101692.42	1.95	-0.12	0.02	-1.01	18.72	8.84	4.02	32.62	34.4
40.27	101691.59	2.01	-0.16	0.04	-1.00	19.27	6.65	10.43	32.63	34.5
40.30	101691.59	2.01	-0.12	0.03	-0.99	19.09	5.37	10.06	32.63	34.4
40.32	101691.59	2.01	-0.11	0.05	-0.98	18.60	6.16	12.50	32.63	34.6
40.34	101692.81	1.91	-0.10	0.03	-0.96	18.60	7.87	14.33	32.64	34.4
40.37	101692.81	1.91	-0.12	0.03	-0.94	18.17	10.73	8.96	32.64	34.4
40.39	101692.30	1.96	-0.15	0.04	-0.94	16.46	11.40	8.78	32.63	34.6
40.41	101694.72	1.75	-0.17	0.05	-0.93	14.76	11.40	9.02	32.64	34.4
40.44	101694.72	1.75	-0.14	0.04	-0.95	13.48	13.05	7.26	32.64	34.6
40.46	101690.73	2.08	-0.14	0.04	-0.98	13.29	15.00	1.10	32.63	34.7
40.48	101692.98	1.90	-0.13	0.05	-0.99	12.32	15.43	-0.73	32.63	34.7
40.51	101692.98	1.90	-0.11	0.04	-1.00	11.28	15.43	0.18	32.63	34.6
40.53	101693.16	1.88	-0.10	0.02	-0.99	10.61	15.24	-0.98	32.64	34.4
40.55	101695.41	1.70	-0.11	0.03	-0.99	10.43	14.27	-1.89	32.64	34.6
40.58	101695.41	1.70	-0.10	0.04	-1.02	11.34	13.23	-2.13	32.64	34.5
40.60	101692.81	1.91	-0.14	0.03	-1.01	13.23	10.18	-0.49	32.63	34.5
40.63	101696.21	1.63	-0.16	0.03	-1.00	14.27	7.62	-1.95	32.63	34.6
40.65	101696.21	1.63	-0.16	0.03	-0.99	14.51	4.27	-2.01	32.63	34.5
40.67	101694.89	1.74	-0.16	0.04	-1.00	14.51	1.77	-9.15	32.64	34.3
40.70	101692.98	1.90	0.27	0.15	-1.06	11.22	3.48	5.79	32.63	34.5
40.72	101692.98	1.90	0.35	0.10	-1.05	4.63	27.32	7.44	32.63	34.4
40.74	101691.52	2.02	-0.15	-0.02	-1.07	9.02	34.15	-1.95	32.63	34.4
40.77	101692.22	1.96	-0.27	0.06	-1.01	10.98	26.34	-5.18	32.63	34.4
40.79	101692.22	1.96	-0.21	0.11	-0.95	6.77	18.72	-8.72	32.63	34.6
40.81	101692.39	1.95	-0.06	0.03	-0.98	5.00	15.79	-2.62	32.63	34.4
40.83	101692.39	1.95	-0.01	-0.00	-0.99	7.20	16.77	-3.35	32.63	34.6
40.85	101696.91	1.57	-0.09	-0.03	-1.00	10.61	16.28	-3.29	32.63	34.6
40.88	101692.05	1.98	-0.09	0.01	-1.02	14.39	12.50	0.12	32.63	34.5
40.90	101692.05	1.98	-0.04	0.03	-1.06	17.07	9.27	-0.18	32.63	34.6
40.92	101693.16	1.88	-0.06	0.06	-1.04	17.07	5.55	0.30	32.64	34.6
40.95	101691.42	2.03	-0.13	0.06	-1.00	15.06	-0.24	-2.20	32.63	34.6
40.97	101691.42	2.03	-0.17	0.03	-1.01	15.18	-7.26	-2.26	32.63	34.3
40.99	101690.14	2.13	-0.15	0.03	-1.04	17.01	-12.80	0.43	32.63	34.3
41.02	101691.42	2.03	-0.10	0.04	-1.04	19.33	-13.54	-4.45	32.64	34.5
41.04	101691.42	2.03	-0.09	0.06	-1.01	19.45	-12.01	-7.32	32.64	34.5
41.06	101690.38	2.11	-0.05	0.06	-0.98	16.59	-9.15	-5.18	32.63	34.4
41.09	101690.91	2.00	-0.02	0.04	-0.98	13.17	-6.10	0.06	32.63	34.4
41.11	101691.70	2.00	0.00	-0.01	-0.94	11.77	-0.49	0.18	32.63	34.7
41.13	101692.22	1.96	0.02	-0.04	-0.94	11.65	6.52	4.33	32.63	34.4
41.16	101692.22	1.96	0.01	-0.05	-0.93	12.80	13.23	7.56	32.63	34.4
41.18	101690.56	2.10	-0.00	-0.04	-0.95	14.45	20.00	11.22	32.63	34.4
41.20	101694.03	1.81	-0.12	0.08	-0.96	13.84	23.78	12.80	32.64	34.5
41.22	101694.03	1.81	-0.15	0.08	-0.97	10.79	23.29	15.98	32.64	34.4
41.25	101692.64	1.93	-0.17	0.10	-0.97	8.35	21.71	10.73	32.64	34.6
41.27	101688.99	2.23	-0.14	0.06	-0.98	6.46	20.37	8.78	32.63	34.5
41.30	101688.99	2.23	-0.15	0.07	-0.99	5.61	18.23	8.41	32.63	34.6
41.32	101687.78	2.33	-0.15	0.08	-0.98	5.61	15.55	10.30	32.63	34.6
41.34	101691.08	2.06	-0.12	0.03	-1.00	5.49	12.07	12.20	32.64	34.4
41.37	101691.08	2.06	-0.07	-0.02	-1.01	7.99	10.06	12.87	32.64	34.5
41.39	101693.34	1.87	-0.09	-0.00	-0.99	10.61	9.57	7.26	32.64	34.7
41.41	101690.21	2.13	-0.11	0.06	-1.00	10.79	7.50	5.91	32.63	34.4
41.43	101690.21	2.13	-0.17	0.14	-1.00	7.93	5.55	3.41	32.63	34.4
41.46	101691.77	2.00	-0.16	0.12	-0.99	3.23	2.56	3.66	32.64	34.6
41.48	101693.16	1.88	-0.08	0.03	-1.00	2.68	2.50	8.29	32.64	34.6
41.50	101693.16	1.88	-0.02	-0.07	-1.01	7.68	7.07	6.10	32.64	34.4
41.52	101690.69	2.09	-0.08	0.01	-1.00	12.32	10.06	-4.02	32.62	34.5
41.55	101690.69	2.09	-0.12	0.10	-1.01	12.13	9.70	-5.85	32.64	34.5
41.57	101691.77	2.00	-0.14	0.16	-1.01	8.48	7.50	-3.29	32.64	34.4
41.59	101691.77	2.00	-0.11	0.07	-1.01	5.18	4.70	1.52	32.64	34.5
41.62	101691.77	2.00	-0.09	-0.04	-0.99	7.74	5.37	2.26	32.63	34.5
41.64	101692.05	1.98	-0.07	-0.07	-1.00	13.84	6.77	-0.67	32.63	34.5
41.66	101693.06	1.89	-0.02	-0.11	-1.00	21.28	9.15	8.35	32.65	34.4
41.68	101693.06	1.89	-0.09	-0.19	-0.99	32.56	10.37	20.85	32.65	34.7
41.71	101690.48	2.11	-0.08	0.06	-1.00	35.24	13.29	14.39	32.63	34.7
41.73	101692.22	1.96	-0.10	0.10	-1.00	31.16	14.21	16.16	32.63	34.5
41.75	101692.22	1.96	-0.17	0.16	-0.98	25.67	13.90	9.21	32.63	34.5
41.77	101687.48	2.35	-0.16	0.22	-1.00	17.99	13.17	-0.24	32.62	34.6
41.80	101692.64	1.93	0.05	0.11	-1.01	11.10	19.02	-4.63	32.64	34.5
41.82	101692.64	1.93	0.04	0.03	-0.99	10.00	26.89	1.46	32.64	34.5
41.85	101693.51	1.86	-0.17	0.06	-0.97	8.78	25.73	2.44	32.64	34.6
41.87	101693.51	1.86	-0.22	0.04	-0.97	7.87	18.11	-1.52	32.65	34.5
41.89	101691.67	2.01	-0.21	0.02	-0.98	8.41	8.78	-2.80	32.65	34.4
41.91	101690.38	2.11	-0.18	0.02	-0.97	9.45	-0.12	-0.18	32.63	34.6
41.94	101690.38	2.11	-0.14	0.02	-0.98	9.09	-5.12	-3.72	32.63	34.4
41.96	101691.77	2.00	-0.13	0.05	-0.98	7.74	-8.11	-2.62	32.63	34.5
41.98	101691.95	1.98	-0.10	0.01	-0.96	7.01	-7.68	0.73	32.64	34.6
42.01	101691.95	1.98	-0.08	-0.00	-0.95	6.95	-3.84	-2.38	32.64	34.5
42.03	101691.77	2.00	-0.09	-0.02	-0.96	8.72	1.04	-4.27	32.64	34.5
42.05	101688.05	2.31	-0.10	-0.02	-0.97	11.28	5.30	-6.04	32.63	34.6
42.07	101688.05	2.31	-0.10	0.00	-0.97	13.17	7.80	-4.33	32.63	34.5
42.10	101689.34	2.20	-0.11	0.02	-0.97	14.88	8.48	-3.90	32.63	34.6
42.12	101689.34	2.20	-0.11	0.04	-0.98	15.30	7.99	-3.60	32.64	34.5
42.15	101692.12	1.97	-0.11	0.05	-1.03	11.83	3.35	3.17	32.64	34.5
42.17	101693.41	1.86	-0.03	0.09	-1.08	11.10	2.87	-0.67	32.65	34.6
42.20	101688.65	2.26	0.21	0.07	-1.08	6.77	18.23	10.85	32.63	34.4
42.22	101688.65	2.26	-0.10	0.01	-1.07	10.67	23.90	1.52	32.63	34.6
42.24	101687.78	2.33	-0.22	0.01	-1.06	14.51	19.63	-0.30	32.63	34.5
42.26	101687.78	2.16	-0.22	0.01	-1.05	18.78	13.17	1.10	32.63	34.5
42.28	101689.80	2.16	-0.19	0.08	-1.05	21.16	7.20	-5.24	32.63	34.5
42.31	101689.86	2.16	-0.16	0.19	-1.03	17.62	1.65	-11.83	32.64	34.7
42.34	101690.31	2.12	-0.14	0.21	-1.00	8.35	-3.35	-19.27	32.63	34.6
42.36	101690.31	2.12	-0.11	0.09	-1.01	0.67	-5.00	-24.88	32.63	34.6
42.38	101691.52	2.02	-0.13	0.00	-0.98	0.67	-4.76	-27.20	32.63	34.5
42.40	101691.52	2.02	-0.13	-0.05	-0.98	3.23	-4.45	-28.35	32.63	34.3
42.42	101688.75	2.25	-0.12	-0.02	-0.97	4.02	-3.29	-24.63	32.63	34.6
42.45	101691.25	2.04	-0.15	-0.06	-0.96	7.20	-1.89	-27.38	32.64	34.4
42.47	101691.25	2.04	-0.23	0.09	-0.98	7.80	-4.88	-27.26	32.64	34.4
42.50	101690.31	2.12	-0.21	0.05	-0.97	5.98	-8.41	-34.33	32.63	34.4
42.52	101689.52	2.19	-0.23	0.15	-0.97	3.17	-11.77	-41.83	32.64	34.6
42.54	101689.52	2.19	-0.26	0.11	-0.98	-2.62	-17.50	-44.76	32.65	34.4
42.57	101692.02	1.98	-0.14	-0.03	-0.98	-1.77	-21.65	-42.13	32.65	34.6
42.59	101692.12	1.97	-0.05	0.11	-0.99	0.43	-16.16	-41.16	32.64	34.5
42.61	101692.12	1.97	-0.16	0.27	-1.03	-7.74	-15.37	-33.60	32.64	34.6
42.64	101690.48	2.11	-0.11	0.06	-1.01	-8.29	-11.46	-37.50	32.63	34.4
42.66	101693.69	1.84	-0.16	-0.04	-1.00	-2.68	-7.07	-35.18	32.64	34.5
42.69	101693.69	1.84	-0.11	-0.06	-0.95	5.79	-2.20	-29.76	32.64	34.3
42.71	101692.98	1.90	-0.12	0.04	-0.98	8.54	2.26	-19.45	32.64	34.4
42.73	101691.70	2.00	-0.19	0.03	-0.97	10.18	4.51	-12.56	32.63	34.5
42.76	101691.70	2.00	-0.26	0.05	-1.00	12.20	3.11	-17.68	32.63	34.5
42.78	101691.77	2.00	-0.21	0.07	-1.00	12.32	0.24	-16.77	32.65	34.4
42.80	101692.64	1.93	-0.16	0.08	-1.00	11.65	-0.55	-9.51	32.65	34.5
42.82	101692.64	1.93	-0.20	0.04	-0.99	12.26	1.10	-8.54	32.65	34.5
42.85	101692.64	1.93	-0.22	0.03	-1.00	15.18	2.74	-8.23	32.64	34.6
42.87	101689.86	2.16	-0.24	0.05	-0.94	15.55	3.35	-10.98	32.64	34.7
42.90	101689.86	2.16	-0.20	0.07	-0.92	13.90	3.54	-15.12	32.64	34.5
42.92	101692.64	1.93	-0.11	0.07	-0.92	11.28	7.93	-12.56	32.63	34.5
42.94	101694.03	1.81	-0.18	0.05	-0.97	10.18	11.52	-17.26	32.65	34.6
42.97	101694.03	1.81	-0.29	0.11	-0.94	8.96	10.67	-24.63	32.65	34.6
42.99	101691.42	2.03	-0.31	0.07	-0.94	4.70	9.27	-22.32	32.64	34.4
43.01	101691.42	2.00	-0.29	0.04	-0.95	1.52	2.01	-9.94	32.64	34.4
43.04	101691.77	2.00	-0.13	0.04	-0.96	1.40	5.67	-13.11	32.64	34.4
43.06	101692.47	1.94	-0.11	0.02	-0.96	2.99	11.46	-20.85	32.65	34.3
43.08	101692.47	1.94	-0.19	0.00	-0.96	3.78	14.15	-11.95	32.65	34.4
43.11	101692.02	1.98	-0.27	0.02	-0.99	5.30	10.06	-2.50	32.65	34.4
43.13	101688.75	2.25	-0.26	0.04	-0.97	5.98	6.46	1.16	32.63	34.4
43.15	101688.75	2.25	-0.21	0.01	-0.96	7.93	4.45	-4.70	32.65	34.5
43.17	101691.08	2.06	-0.18	0.00	-0.97	12.20	7.93	-14.70	32.65	34.5
43.20	101689.94	2.15	-0.22	0.01	-0.99	15.49	9.15	-10.12	32.65	34.4
43.23	101689.94	2.15	-0.23	0.05	-0.98	17.01	8.54	-5.06	32.65	34.6
43.25	101688.13	2.30	-0.22	0.13	-0.96	14.27	10.06	-5.37	32.65	34.6
43.27	101686.91	2.40	-0.23	0.10	-0.98	10.85	12.44	-8.60	32.64	34.4
43.30	101686.91	2.40	-0.20	0.03	-0.95	9.70	14.09	-5.18	32.65	34.7
43.32	101688.38	2.28	-0.19	0.02	-0.98	11.04	16.40	-1.71	32.65	34.4
43.34	101686.91	2.40	-0.30	0.09	-0.95	9.70	13.96	2.38	32.64	34.6
43.37	101686.91	2.40	-0.27	0.13	-0.95	6.28	8.29	4.09	32.64	34.4
43.39	101687.61	2.34	-0.17	0.04	-0.95	5.55	6.71	3.48	32.64	34.7
43.41	101691.25	2.04	-0.19	0.05	-0.94	6.77	8.96	0.06	32.64	34.6
43.44	101691.25	2.04	-0.16	0.02	-0.93	6.65	11.22	-2.01	32.64	34.7
43.46	101692.47	1.94	-0.17	0.07	-0.93	5.61	13.29	5.67	32.65	34.6
43.48	101690.45	2.11	-0.18	0.15	-0.93	2.56	16.40	-0.12	32.65	34.4
43.51	101690.45	2.11	-0.28	0.08	-0.94	0.67	17.07	-10.73	32.65	34.5
43.53	101688.83	2.24	-0.30	-0.01	-1.00	4.88	12.68	0.73	32.64	34.6
43.55	101691.67	2.01	-0.21	0.04	-1.05	8.54	9.57	10.55	32.65	34.7
43.58	101691.67	2.01	-0.13	0.07	-0.98	11.22	11.04	3.60	32.65	34.5
43.60	101692.91	1.90	-0.14	0.07	-0.99	12.01	16.89	2.01	32.63	34.5
43.62	101691.77	2.00	-0.25	0.10	-1.00	13.60	11.10	8.54	32.64	34.6
43.65	101691.77	2.00	-0.27	0.04	-1.06	16.28	3.96	8.48	32.64	34.6
43.67	101689.69	2.17	-0.28	0.13	-1.01	16.04	-1.28	12.80	32.64	34.6
43.69	101689.69	2.17	-0.22	0.08	-0.98	14.27	-3.78	13.35	32.64	34.5
43.71	101690.04	2.14	-0.19	0.06	-0.99	15.61	-2.74	13.41	32.64	34.5
43.74	101689.94	2.15	-0.17	0.09	-0.95	15.91	2.99	8.84	32.65	34.4
43.76	101690.21	2.13	-0.20	0.09	-0.94	13.35	7.93	5.06	32.64	34.5
43.78	101690.21	2.13	-0.23	0.06	-0.99	14.45	12.20	7.01	32.64	34.5
43.81	101688.38	2.28	-0.23	0.08	-0.97	14.88	12.13	9.15	32.65	34.5
43.83	101688.38	2.28	-0.24	0.13	-0.98	12.56	10.49	8.48	32.65	34.6
43.85	101690.28	2.12	-0.27	0.11	-1.01	12.44	6.28	4.88	32.65	34.6
43.88	101690.38	2.11	-0.25	0.05	-0.99	13.90	3.90	5.49	32.64	34.4
43.90	101690.38	2.11	-0.18	0.09	-0.96	14.63	3.11	10.37	32.65	34.4
43.93	101693.16	1.88	-0.24	0.11	-0.96	12.56	5.98	9.76	32.65	34.4
43.95	101689.86	2.16	-0.24	0.12	-0.92	10.18	7.62	8.96	32.65	34.3
43.98	101689.86	2.16	-0.21	0.06	-0.94	8.90	9.63	0.67	32.65	34.4
44.00	101690.21	2.13	-0.24	0.00	-0.96	12.44	11.95	-1.77	32.65	34.5
44.02	101691.08	2.06	-0.29	0.15	-0.96	11.52	9.88	6.83	32.65	34.5
44.04	101691.08	2.06	-0.23	0.11	-0.99	12.80	11.52	-2.26	32.65	34.4
44.07	101689.17	2.21	-0.26	0.11	-0.98	11.89	8.05	-2.99	32.65	34.4
44.09	101691.59	2.01	-0.26	0.04	-0.98	11.59	2.32	2.07	32.65	34.5
44.12	101691.59	2.01	-0.26	0.07	-0.98	13.17	1.59	-0.18	32.65	34.4
44.14	101693.86	1.83	-0.25	0.18	-0.94	10.79	2.74	-11.83	32.65	34.3
44.16	101692.36	1.95	-0.25	0.13	-0.97	6.77	4.51	-16.16	32.65	34.5
44.19	101692.36	1.95	-0.26	0.06	-0.91	5.61	5.30	-9.39	32.65	34.6
44.21	101692.30	1.96	-0.36	0.13	-0.91	4.57	0.30	-5.37	32.65	34.4
44.23	101691.77	2.00	-0.38	0.05	-0.96	6.59	-7.87	-9.94	32.65	34.6
44.25	101691.77	2.00	-0.29	0.02	-0.93	9.27	-14.63	-12.01	32.65	34.3
44.28	101691.15	2.05	-0.23	0.01	-0.97	14.33	-18.84	-6.59	32.65	34.6
44.30	101691.15	1.89	-0.04	-0.13	-1.00	20.79	-16.34	23.17	32.65	34.6
44.32	101693.06	1.89	-0.15	0.33	-1.01	24.33	-8.54	9.33	32.65	34.6
44.34	101692.71	1.92	-0.17	0.22	-0.92	7.93	-0.37	-14.51	32.65	34.5
44.37	101692.71	1.92	-0.15	0.17	-0.89	0.06	8.35	-4.39	32.65	34.4
44.39	101694.89	1.74	-0.21	0.10	-0.90	-2.62	19.63	-12.50	32.65	34.6
44.41	101693.58	1.85	-0.31	0.02	-0.92	-2.68	26.59	-13.84	32.65	34.6
44.43	101693.58	1.85	-0.37	0.06	-0.99	-1.89	26.22	-8.48	32.65	34.4
44.46	101692.64	1.93	-0.24	0.05	-0.97	-0.91	25.85	-5.67	32.65	34.5
44.48	101693.03	1.89	-0.26	0.04	-1.01	3.35	26.40	-9.02	32.66	34.5
44.51	101693.03	1.89	-0.33	0.11	-0.97	5.49	21.52	-5.73	32.66	34.4
44.53	101691.42	2.03	-0.32	0.09	-0.98	6.16	15.98	-5.49	32.64	34.3
44.55	101692.64	1.93	-0.16	0.04	-1.01	8.66	14.21	0.55	32.65	34.5
44.57	101692.64	1.93	-0.15	0.02	-1.00	14.76	18.66	6.34	32.65	34.6
