T;A0_Volts (-);A1_Volts (-);P_Volts (-);Mag_Volts (-);Photo_Volts (-);Tint_Volts (-);Text_Volts (-);Batt_Volts (-);T0 (C);T1 (C);T2 (C);T3 (C);T4 (C);T5 (C);T6 (C);T7 (C);T8 (C);T9 (C);P;Pressure (kPa);Acceleration_x (g);Acceleration_y (g);GPS_Velocity (m/s);GPS_Longitude (-);GPS_Lattitude (-);GPS_Altitude (-);T_internal (-);T_external (-);D1_Acceleration_x (-);D1_Acceleration_y (-);D1_Acceleration_z (-);D1_Spin_x (-);D1_Spin_y (-);D1_Spin_z (-);D1_Magnetic_Field_x (-);D1_Magnetix_Field_y (-);D1_Magnetic_Field_z (-);R_A0 (-);R_A1 (-);R_A2 (-);R_A3 (-);R_A4 (-);R_A5 (-);R_A6 (-);R_A7 (-);R_A8 (-);R_A9 (-);Main_FLOCK - Main stream (-);P0/Main stream/SFLOCK - Main stream (-);P0/Main stream/SFID - Main stream (-);FrameSync (-);Framecounter (-);A0 (-);A1 (-);A2 (-);A3 (-);A4 (-);A5 (-);A6 (-);A7 (-);D0_Temp_Array (-);D1_GPS_IMU (-);TempArr_FLOCK - Temp Array (-);P0/Temp Array/SFLOCK - Temp Array (-);P0/Temp Array/SFID - Temp Array (-);D0_FrameSync (-);D0_A0 (-);D0_A1 (-);D0_A2 (-);D0_A3 (-);D0_A4 (-);D0_A5 (-);D0_A6 (-);D0_A7 (-);D0_A8 (-);D0_A9 (-);D0_Voltage (-);D0_Current (-);GPSIMU_FLOCK - GPS/IMU (-);P0/GPS/IMU/SFLOCK - GPS/IMU (-);P0/GPS/IMU/SFID - GPS/IMU (-);D1_FrameSync (-);D1_NumberOfSatellites (-);D1_3D-fix (-);D1_Status (-);D1_Longitude (-);D1_Lattitude (-);D1_Altitude (-);D1_Velocity (-);D1_Supersync (-);D1_SuperFrameID (-);D1_Ax (-);D1_Ay (-);D1_Az (-);D1_Gx (-);D1_Gy (-);D1_Gz (-);D1_Mx (-);D1_My (-);D1_Mz (-);FLOCK - Main stream (-);P1/Main stream/SFLOCK - Main stream (-);P1/Main stream/SFID - Main stream (-)
200,0083;2,4901962;2,5490198;4,0980392;2,7450981;0,15686275;0,33333334;0,13725491;0,019607844;;;;;;;;;;;2733,9104;71,557739;-117,15687;-54,166668;;;;;22,638147;52,020813;;;;;;;;;;;;;;;;;;;;2;2;;60304;48947;127;130;209;140;8;17;7;1;38;0;;;;;;;;;;;;;;;;;;;;;;;;;;;;;;;;;;;;;;;;;
200,0168;2,4901962;2,5490198;4,0980392;2,7254903;0,15686275;0,33333334;0,13725491;0,019607844;;;;;;;;;;;2782,2068;71,122009;-117,15687;-54,166668;;;;;22,638147;52,020813;;;;;;;;;;;;;;;;;;;;2;2;;60304;48966;127;130;209;139;8;17;7;1;10;239;;;;;;;;;;;;;;;;;;;;;;;;;;;;;;;;;;;;;;;;;
200,02575;2,509804;2,5294118;4,0980392;2,7254903;0,17647059;0,33333334;0,13725491;0,019607844;;;;;;;;;;;2782,2068;71,122009;-116,17648;-54,166668;;;;;22,816401;51,620647;;;;;;;;;;;;;;;;;;;;2;2;;60304;48986;128;129;209;139;9;17;7;1;11;239;;;;;;;;;;;;;;;;;;;;;;;;;;;;;;;;;;;;;;;;;
200,03475;2,4901962;2,5490198;4,0980392;2,7450981;0,15686275;0,33333334;0,13725491;0,019607844;;;;;;;;;;;2733,9104;71,557739;-117,15687;-54,166668;;;;;22,638147;52,020813;;;;;;;;;;;;;;;;;;;;2;2;;60304;49006;127;130;209;140;8;17;7;1;11;239;;;;;;;;;;;;;;;;;;;;;;;;;;;;;;;;;;;;;;;;;
200,04325;2,4901962;2,5490198;4,0980392;2,7450981;0,15686275;0,33333334;0,13725491;0,019607844;;;;;;;;;;;2733,9104;71,557739;-117,15687;-54,166668;;;;;22,638147;52,020813;;;;;;;0,18256001;;;;;;;;;;;;;2;2;;60304;49025;127;130;209;140;8;17;7;1;79;24;;;;;;;;;;;;;;;;;;;;;;;;;;;;;;;;;;;;1304;;;;;
200,0522;2,4901962;2,5490198;4,1176472;2,7450981;0,15686275;0,33333334;0,13725491;0,019607844;;;;;;;;;;;2733,9104;71,557739;-117,15687;-54,166668;;;;;22,638147;52,020813;;;;;;;;;;;;;;;;;;;;2;2;;60304;49045;127;130;210;140;8;17;7;1;52;0;;;;;;;;;;;;;;;;;;;;;;;;;;;;;;;;;;;;;;;;;
200,06115;2,4901962;2,5490198;4,0980392;2,7254903;0,15686275;0,33333334;0,13725491;0,019607844;;;;;;;;;;;2782,2068;71,122009;-117,15687;-54,166668;;;;;22,638147;52,020813;;;;;;;0,18928;;;;;;;;;;;;;2;2;;60304;49065;127;130;209;139;8;17;7;1;68;72;;;;;;;;;;;;;;;;;;;;;;;;;;;;;;;;;;;;1352;;;;;
200,06965;2,4901962;2,5490198;4,1176472;2,7450981;0,15686275;0,33333334;0,13725491;0,019607844;;;;;;;;;;;2733,9104;71,557739;-117,15687;-54,166668;;;;;22,638147;52,020813;;;;;;;;;;;;;;;;;;;;2;2;;60304;49084;127;130;210;140;8;17;7;1;11;5;;;;;;;;;;;;;;;;;;;;;;;;;;;;;;;;;;;;;;;;;
200,07865;2,4901962;2,5294118;4,0980392;2,7450981;0,15686275;0,33333334;0,13725491;0,019607844;;;;;;;;;;;2733,9104;71,557739;-117,15687;-54,166668;;;;;22,638147;51,620647;;;;;;;;;;;;;;;;;;;;2;2;;60304;49104;127;129;209;140;8;17;7;1;6;5;;;;;;;;;;;;;;;;;;;;;;;;;;;;;;;;;;;;;;;;;
200,08715;2,509804;2,5490198;4,0980392;2,7254903;0,15686275;0,33333334;0,13725491;0,019607844;;;;;;;;;;;2782,2068;71,122009;-117,15687;-54,166668;;;;;22,816401;52,020813;;;;;;0,63;;;;;;;;;;;;;;2;2;;60304;49123;128;130;209;139;8;17;7;1;53;9;;;;;;;;;;;;;;;;;;;;;;;;;;;;;;;;;;;9;;;;;;
200,0961;2,4901962;2,5490198;4,0980392;2,7450981;0,15686275;0,33333334;0,13725491;0,019607844;;;;;;;;;;;2733,9104;71,557739;-117,15687;-54,166668;;;;;22,638147;52,020813;;;;;;;;;;;;;;;;;;;;2;2;;60304;49143;127;130;209;140;8;17;7;1;69;159;;;;;;;;;;;;;;;;;;;;;;;;;;;;;;;;;;;;;;;;;
200,10505;2,4901962;2,5490198;4,1176472;2,7254903;0,17647059;0,33333334;0,13725491;0,019607844;;;;;;;;;;;2782,2068;71,122009;-116,17648;-54,166668;;;;;22,638147;52,020813;;;;;;1,12;;;;;;;;;;;;;;2;2;;60304;49163;127;130;210;139;9;17;7;1;48;16;;;;;;;;;;;;;;;;;;;;;;;;;;;;;;;;;;;16;;;;;;
200,114;2,4901962;2,5490198;4,1176472;2,7254903;0,15686275;0,33333334;0,13725491;0,019607844;;;;;;;;;;;2782,2068;71,122009;-117,15687;-54,166668;;;;;22,638147;52,020813;;;;;;1,1900001;;;;;;;;;;;;;;2;2;;60304;49183;127;130;210;139;8;17;7;1;62;17;;;;;;;;;;;;;;;;;;;;;;;;;;;;;;;;;;;17;;;;;;
200,123;2,4901962;2,5490198;4,1176472;2,7450981;0,15686275;0,33333334;0,13725491;0,019607844;;;;;;;;;;;2733,9104;71,557739;-117,15687;-54,166668;;;;;22,638147;52,020813;;;;;;0,98000002;;;;;;;;;;;;;;2;2;;60304;49203;127;130;210;140;8;17;7;1;117;14;;;;;;;;;;;;;;;;;;;;;;;;;;;;;;;;;;;14;;;;;;
200,13195;2,4901962;2,5490198;4,0980392;2,7450981;0,15686275;0,33333334;0,13725491;0,019607844;;;;;;;;;;;2733,9104;71,557739;-117,15687;-54,166668;;;;;22,638147;52,020813;;;;;;1,1900001;;;;;;;;;;;;;;2;2;;60304;49223;127;130;209;140;8;17;7;1;209;17;;;;;;;;;;;;;;;;;;;;;;;;;;;;;;;;;;;17;;;;;;
200,1409;2,4901962;2,5490198;4,0980392;2,7254903;0,15686275;0,33333334;0,13725491;0,019607844;;;;;;;;;;;2782,2068;71,122009;-117,15687;-54,166668;;;;;22,638147;52,020813;;;;;;;;;;;;;;;;;;;;2;2;;60304;49243;127;130;209;139;8;17;7;1;84;159;;;;;;;;;;;;;;;;;;;;;;;;;;;;;;;;;;;;;;;;;
200,14985;2,4901962;2,5490198;4,1176472;2,7254903;0,17647059;0,3137255;0,13725491;0,019607844;;;;;;;;;;;2782,2068;71,122009;-116,17648;-54,656864;;;;;22,638147;52,020813;;;;;;0,84000003;;;;;;;;;;;;;;2;2;;60304;49263;127;130;210;139;9;16;7;1;160;12;;;;;;;;;;;;;;;;;;;;;;;;;;;;;;;;;;;12;;;;;;
200,1588;2,4901962;2,5294118;4,1176472;2,7254903;0,15686275;0,3137255;0,13725491;0,019607844;;;;;;;;;;;2782,2068;71,122009;-117,15687;-54,656864;;;;;22,638147;51,620647;;;;;;1,12;;;;;;;;;;;;;;2;2;;60304;49283;127;129;210;139;8;16;7;1;165;16;;;;;;;;;;;;;;;;;;;;;;;;;;;;;;;;;;;16;;;;;;
200,1678;2,509804;2,5490198;4,0980392;2,7450981;0,15686275;0,33333334;0,13725491;0,019607844;;;;;;;;;;;2733,9104;71,557739;-117,15687;-54,166668;;;;;22,816401;52,020813;;;;;;0,98000002;;;;;;;;;;;;;;2;2;;60304;49303;128;130;209;140;8;17;7;1;213;14;;;;;;;;;;;;;;;;;;;;;;;;;;;;;;;;;;;14;;;;;;
200,17675;2,4901962;2,5490198;4,0980392;2,7254903;0,17647059;0,33333334;0,13725491;0,019607844;;;;;;;;;;;2782,2068;71,122009;-116,17648;-54,166668;;;;;22,638147;52,020813;;;;;;0,98000002;;;;;;;;;;;;;;2;2;;60304;49323;127;130;209;139;9;17;7;1;76;14;;;;;;;;;;;;;;;;;;;;;;;;;;;;;;;;;;;14;;;;;;
200,1857;2,4901962;2,5490198;4,1176472;2,7254903;0,15686275;0,33333334;0,13725491;0,019607844;;;;;;;;;;;2782,2068;71,122009;-117,15687;-54,166668;;;;;22,638147;52,020813;;;;;;;;;;;;;;;;;;;;2;2;;60304;49343;127;130;210;139;8;17;7;1;182;159;;;;;;;;;;;;;;;;;;;;;;;;;;;;;;;;;;;;;;;;;
200,19465;2,4901962;2,5490198;4,1176472;2,7450981;0,15686275;0,3137255;0,13725491;0,019607844;;;;;;;;;;;2733,9104;71,557739;-117,15687;-54,656864;;;;;22,638147;52,020813;;;;;;1,33;;;;;;;;;;;;;;2;2;;60304;49363;127;130;210;140;8;16;7;1;134;19;;;;;;;;;;;;;;;;;;;;;;;;;;;;;;;;;;;19;;;;;;
200,20315;2,4901962;2,5490198;4,0980392;2,7450981;0,15686275;0,33333334;0,13725491;0,019607844;;;;;;;;;;;2733,9104;71,557739;-117,15687;-54,166668;;;;;22,638147;52,020813;;;;;;;;;;;;;;;;;;;;2;2;;60304;49382;127;130;209;140;8;17;7;1;10;0;;;;;;;;;;;;;;;;;;;;;;;;;;;;;;;;;;;;;;;;;
200,21215;2,4901962;2,5490198;4,0980392;2,7450981;0,15686275;0,33333334;0,13725491;0,019607844;;;;;;;;;;;2733,9104;71,557739;-117,15687;-54,166668;;;;;22,638147;52,020813;;;;;;;;;;;;;;;;;;;;2;2;;60304;49402;127;130;209;140;8;17;7;1;11;0;;;;;;;;;;;;;;;;;;;;;;;;;;;;;;;;;;;;;;;;;
200,22065;2,4901962;2,5490198;4,0980392;2,7450981;0,15686275;0,33333334;0,13725491;0,019607844;;;;;;;;;;;2733,9104;71,557739;-117,15687;-54,166668;;;;;22,638147;52,020813;;;;;0,84000003;;;;;;;;;;;;;;;2;2;;60304;49421;127;130;209;140;8;17;7;1;184;12;;;;;;;;;;;;;;;;;;;;;;;;;;;;;;;;;;12;;;;;;;
200,2296;2,4901962;2,5294118;4,0980392;2,7254903;0,17647059;0,33333334;0,13725491;0,019607844;;;;;;;;;;;2782,2068;71,122009;-116,17648;-54,166668;;;;;22,638147;51,620647;;;;;;;;;;;;;;;;;;;;2;2;;60304;49441;127;129;209;139;9;17;7;1;20;0;;;;;;;;;;;;;;;;;;;;;;;;;;;;;;;;;;;;;;;;;
200,23855;2,4901962;2,5490198;4,0980392;2,7450981;0,17647059;0,3137255;0,13725491;0,019607844;;;;;;;;;;;2733,9104;71,557739;-116,17648;-54,656864;;;;;22,638147;52,020813;;;;;0,76999998;;;;;;;;;;;;;;;2;2;;60304;49461;127;130;209;140;9;16;7;1;49;11;;;;;;;;;;;;;;;;;;;;;;;;;;;;;;;;;;11;;;;;;;
200,2475;2,4901962;2,5294118;4,1176472;2,7254903;0,17647059;0,33333334;0,13725491;0,019607844;;;;;;;;;;;2782,2068;71,122009;-116,17648;-54,166668;;;;;22,638147;51,620647;;;;;1,12;;;;;;;;;;;;;;;2;2;;60304;49481;127;129;210;139;9;17;7;1;69;16;;;;;;;;;;;;;;;;;;;;;;;;;;;;;;;;;;16;;;;;;;
200,2565;2,4901962;2,5294118;4,0980392;2,7254903;0,17647059;0,3137255;0,13725491;0,019607844;;;;;;;;;;;2782,2068;71,122009;-116,17648;-54,656864;;;;;22,638147;51,620647;;;;;0,98000002;;;;;;;;;;;;;;;2;2;;60304;49501;127;129;209;139;9;16;7;1;43;14;;;;;;;;;;;;;;;;;;;;;;;;;;;;;;;;;;14;;;;;;;
200,26545;2,4901962;2,5490198;4,0980392;2,7254903;0,17647059;0,33333334;0,13725491;0,019607844;;;;;;;;;;;2782,2068;71,122009;-116,17648;-54,166668;;;;;22,638147;52,020813;;;;;1,12;;;;;;;;;;;;;;;2;2;;60304;49521;127;130;209;139;9;17;7;1;139;16;;;;;;;;;;;;;;;;;;;;;;;;;;;;;;;;;;16;;;;;;;
200,2744;2,509804;2,5490198;4,0980392;2,7254903;0,15686275;0,3137255;0,13725491;0,019607844;;;;;;;;;;;2782,2068;71,122009;-117,15687;-54,656864;;;;;22,816401;52,020813;;;;;;;;;;;;;;;;;;;;2;2;;60304;49541;128;130;209;139;8;16;7;1;124;0;;;;;;;;;;;;;;;;;;;;;;;;;;;;;;;;;;;;;;;;;
200,28335;2,4901962;2,5490198;4,0980392;2,7254903;0,15686275;0,33333334;0,13725491;0,019607844;;;;;;;;;;;2782,2068;71,122009;-117,15687;-54,166668;;;;;22,638147;52,020813;;;;;0,84000003;;;;;;;;;;;;;;;2;2;;60304;49561;127;130;209;139;8;17;7;1;213;12;;;;;;;;;;;;;;;;;;;;;;;;;;;;;;;;;;12;;;;;;;
200,29235;2,4901962;2,5490198;4,0980392;2,7254903;0,17647059;0,33333334;0,13725491;0,019607844;;;;;;;;;;;2782,2068;71,122009;-116,17648;-54,166668;;;;;22,638147;52,020813;;;;;0,56;;;;;;;;;;;;;;;2;2;;60304;49581;127;130;209;139;9;17;7;1;85;8;;;;;;;;;;;;;;;;;;;;;;;;;;;;;;;;;;8;;;;;;;
200,3013;2,4901962;2,5490198;4,0980392;2,7254903;0,17647059;0,33333334;0,13725491;0,019607844;;;;;;;;;;;2782,2068;71,122009;-116,17648;-54,166668;;;;;22,638147;52,020813;;;;;0,84000003;;;;;;;;;;;;;;;2;2;;60304;49601;127;130;209;139;9;17;7;1;160;12;;;;;;;;;;;;;;;;;;;;;;;;;;;;;;;;;;12;;;;;;;
200,31025;2,4901962;2,5490198;4,0980392;2,7254903;0,15686275;0,33333334;0,13725491;0,019607844;;;;;;;;;;;2782,2068;71,122009;-117,15687;-54,166668;;;;;22,638147;52,020813;;;;;1,12;;;;;;;;;;;;;;;2;2;;60304;49621;127;130;209;139;8;17;7;1;164;16;;;;;;;;;;;;;;;;;;;;;;;;;;;;;;;;;;16;;;;;;;
200,3192;2,4901962;2,5490198;4,1176472;2,7450981;0,15686275;0,33333334;0,13725491;0,019607844;;;;;;;;;;;2733,9104;71,557739;-117,15687;-54,166668;;;;;22,638147;52,020813;;;;;;;;;;;;;;;;;;;;2;2;;60304;49641;127;130;210;140;8;17;7;1;212;0;;;;;;;;;;;;;;;;;;;;;;;;;;;;;;;;;;;;;;;;;
200,32815;2,4901962;2,5294118;4,1176472;2,7254903;0,17647059;0,33333334;0,13725491;0,019607844;;;;;;;;;;;2782,2068;71,122009;-116,17648;-54,166668;;;;;22,638147;51,620647;;;;;1,26;;;;;;;;;;;;;;;2;2;;60304;49661;127;129;210;139;9;17;7;1;77;18;;;;;;;;;;;;;;;;;;;;;;;;;;;;;;;;;;18;;;;;;;
200,33715;2,4901962;2,5490198;4,1176472;2,7254903;0,15686275;0,33333334;0,13725491;0,019607844;;;;;;;;;;;2782,2068;71,122009;-117,15687;-54,166668;;;;;22,638147;52,020813;;;;;1,12;;;;;;;;;;;;;;;2;2;;60304;49681;127;130;210;139;8;17;7;1;184;16;;;;;;;;;;;;;;;;;;;;;;;;;;;;;;;;;;16;;;;;;;
200,3461;2,509804;2,5294118;4,0980392;2,7254903;0,15686275;0,3137255;0,13725491;0,019607844;;;;;;;;;;;2782,2068;71,122009;-117,15687;-54,656864;;;;;22,816401;51,620647;;;;;0,63;;;;;;;;;;;;;;;2;2;;60304;49701;128;129;209;139;8;16;7;1;71;9;;;;;;;;;;;;;;;;;;;;;;;;;;;;;;;;;;9;;;;;;;
200,3546;2,509804;2,5490198;4,1176472;2,7254903;0,15686275;0,33333334;0,13725491;0,019607844;;;;;;;;;;;2782,2068;71,122009;-117,15687;-54,166668;;;;;22,816401;52,020813;;;;;;;;;;;;;;;;;;;;2;2;;60304;49720;128;130;210;139;8;17;7;1;10;0;;;;;;;;;;;;;;;;;;;;;;;;;;;;;;;;;;;;;;;;;
200,36355;2,4901962;2,5490198;4,1176472;2,7450981;0,17647059;0,33333334;0,13725491;0,019607844;;;;;;;;;;;2733,9104;71,557739;-116,17648;-54,166668;;;;;22,638147;52,020813;;;;;;;;;;;;;;;;;;;;2;2;;60304;49740;127;130;210;140;9;17;7;1;11;20;;;;;;;;;;;;;;;;;;;;;;;;;;;;;;;;;;;;;;;;;
200,3725;2,4901962;2,5294118;4,1176472;2,7450981;0,17647059;0,33333334;0,13725491;0,019607844;;;;;;;;;;;2733,9104;71,557739;-116,17648;-54,166668;;;;;22,638147;51,620647;;;;;;;;;;;;;;;;;;;;2;2;;60304;49760;127;129;210;140;9;17;7;1;11;0;;;;;;;;;;;;;;;;;;;;;;;;;;;;;;;;;;;;;;;;;
200,3815;2,4901962;2,5294118;4,1176472;2,7254903;0,15686275;0,33333334;0,13725491;0,019607844;;;;;;;;;;;2782,2068;71,122009;-117,15687;-54,166668;;;;;22,638147;51,620647;;;;;;;;;;;;;;;;;;;;2;2;;60304;49780;127;129;210;139;8;17;7;1;5;0;;;;;;;;;;;;;;;;;;;;;;;;;;;;;;;;;;;;;;;;;
200,39045;2,4901962;2,5490198;4,0980392;2,7254903;0,17647059;0,3137255;0,13725491;0,019607844;;;;;;;;;;;2782,2068;71,122009;-116,17648;-54,656864;;;;;22,638147;52,020813;;;;;;;;;;;;;;;;;;;;2;2;;60304;49800;127;130;209;139;9;16;7;1;11;0;;;;;;;;;;;;;;;;;;;;;;;;;;;;;;;;;;;;;;;;;
200,39895;2,4901962;2,5490198;4,1176472;2,7450981;0,15686275;0,33333334;0,13725491;0,019607844;;;;;;;;;;;2733,9104;71,557739;-117,15687;-54,166668;;;;;22,638147;52,020813;;;;-2,03;;;;;;;;;;;;;;;;2;2;;60304;49819;127;130;210;140;8;17;7;1;79;227;;;;;;;;;;;;;;;;;;;;;;;;;;;;;;;;;-29;;;;;;;;
200,4079;2,4901962;2,5490198;4,0980392;2,7254903;0,17647059;0,3137255;0,13725491;0,019607844;;;;;;;;;;;2782,2068;71,122009;-116,17648;-54,656864;;;;;22,638147;52,020813;;;;;;;;;;;;;;;;;;;;2;2;;60304;49839;127;130;209;139;9;16;7;1;46;114;;;;;;;;;;;;;;;;;;;;;;;;;;;;;;;;;;;;;;;;;
200,41685;2,4901962;2,5490198;4,1176472;2,7450981;0,15686275;0,33333334;0,13725491;0,019607844;;;;;;;;;;;2733,9104;71,557739;-117,15687;-54,166668;;;;;22,638147;52,020813;;;;-2,1700001;;;;;;;;;;;;;;;;2;2;;60304;49859;127;130;210;140;8;17;7;1;222;225;;;;;;;;;;;;;;;;;;;;;;;;;;;;;;;;;-31;;;;;;;;
200,42585;2,4901962;2,5294118;4,1176472;2,7254903;0,15686275;0,33333334;0,13725491;0,019607844;;;;;;;;;;;2782,2068;71,122009;-117,15687;-54,166668;;;;;22,638147;51,620647;;;;-2,03;;;;;;;;;;;;;;;;2;2;;60304;49879;127;129;210;139;8;17;7;1;122;227;;;;;;;;;;;;;;;;;;;;;;;;;;;;;;;;;-29;;;;;;;;
200,4348;2,509804;2,5490198;4,0980392;2,7450981;0,15686275;0,3137255;0,13725491;0,019607844;;;;;;;;;;;2733,9104;71,557739;-117,15687;-54,656864;;;;;22,816401;52,020813;;;;-2,24;;;;;;;;;;;;;;;;2;2;;60304;49899;128;130;209;140;8;16;7;1;211;224;;;;;;;;;;;;;;;;;;;;;;;;;;;;;;;;;-32;;;;;;;;
200,44375;2,4901962;2,5490198;4,0980392;2,7254903;0,17647059;0,33333334;0,13725491;0,019607844;;;;;;;;;;;2782,2068;71,122009;-116,17648;-54,166668;;;;;22,638147;52,020813;;;;-1,8200001;;;;;;;;;;;;;;;;2;2;;60304;49919;127;130;209;139;9;17;7;1;93;230;;;;;;;;;;;;;;;;;;;;;;;;;;;;;;;;;-26;;;;;;;;
200,4527;2,4901962;2,5490198;4,0980392;2,7254903;0,15686275;0,33333334;0,13725491;0,019607844;;;;;;;;;;;2782,2068;71,122009;-117,15687;-54,166668;;;;;22,638147;52,020813;;;;;;;;;;;;;;;;;;;;2;2;;60304;49939;127;130;209;139;8;17;7;1;160;114;;;;;;;;;;;;;;;;;;;;;;;;;;;;;;;;;;;;;;;;;
200,46165;2,4901962;2,5490198;4,1176472;2,7254903;0,15686275;0,3137255;0,13725491;0,019607844;;;;;;;;;;;2782,2068;71,122009;-117,15687;-54,656864;;;;;22,638147;52,020813;;;;-2,3099999;;;;;;;;;;;;;;;;2;2;;60304;49959;127;130;210;139;8;16;7;1;171;223;;;;;;;;;;;;;;;;;;;;;;;;;;;;;;;;;-33;;;;;;;;
200,47065;2,4901962;2,5490198;4,0980392;2,7254903;0,15686275;0,33333334;0,13725491;0,019607844;;;;;;;;;;;2782,2068;71,122009;-117,15687;-54,166668;;;;;22,638147;52,020813;;;;-2,45;;;;;;;;;;;;;;;;2;2;;60304;49979;127;130;209;139;8;17;7;1;215;221;;;;;;;;;;;;;;;;;;;;;;;;;;;;;;;;;-35;;;;;;;;
200,47915;2,4901962;2,5490198;4,1176472;2,7254903;0,15686275;0,33333334;0,13725491;0,019607844;;;;;;;;;;;2782,2068;71,122009;-117,15687;-54,166668;;;;;22,638147;52,020813;;;;;;;;;;;;;;;;;;;;2;2;;60304;49998;127;130;210;139;8;17;7;1;11;255;;;;;;;;;;;;;;;;;;;;;;;;;;;;;;;;;;;;;;;;;
200,4881;2,509804;2,5490198;4,0980392;2,7450981;0,15686275;0,3137255;0,13725491;0,019607844;112,091;113,88956;113,32278;113,40128;113,4931;100,8428;115,01138;113,77011;112,99762;112,29321;2733,9104;71,557739;-117,15687;-54,656864;;;;;22,816401;52,020813;;;;;;;;;;479,39621;456,15546;463,33401;462,33179;461,16272;660,60449;442,327;457,65714;467,51215;476,71576;2;2;;60304;50018;128;130;209;140;8;16;7;1;161;255;2;2;;41121;2998;2859;2902;2896;2889;4061;2776;2868;2927;2982;1489;898;;;;;;;;;;;;;;;;;;;;;;;;;
200,49705;2,4901962;2,5490198;4,0980392;2,7254903;0,17647059;0,3137255;0,13725491;0,019607844;;;;;;;;;;;2782,2068;71,122009;-116,17648;-54,656864;;;;;22,638147;52,020813;;;;;;;;;;;;;;;;;;;;2;2;;60304;50038;127;130;209;139;9;16;7;1;11;140;;;;;;;;;;;;;;;;;;;;;;;;;;;;;;;;;;;;;;;;;
200,506;2,4901962;2,5490198;4,1176472;2,7254903;0,15686275;0,33333334;0,13725491;0,019607844;;;;;;;;;;;2782,2068;71,122009;-117,15687;-54,166668;;;;;22,638147;52,020813;;;;;;;;;;;;;;;;;;;;2;2;;60304;50058;127;130;210;139;8;17;7;1;10;255;;;;;;;;;;;;;;;;;;;;;;;;;;;;;;;;;;;;;;;;;
200,515;2,4901962;2,5490198;4,1176472;2,7450981;0,15686275;0,33333334;0,13725491;0,019607844;;;;;;;;;;;2733,9104;71,557739;-117,15687;-54,166668;;;;;22,638147;52,020813;;;;;;;;;;;;;;;;;;;;2;2;;60304;50078;127;130;210;140;8;17;7;1;11;255;;;;;;;;;;;;;;;;;;;;;;;;;;;;;;;;;;;;;;;;;
200,52395;2,509804;2,5490198;4,0980392;2,7450981;0,15686275;0,33333334;0,13725491;0,019607844;;;;;;;;;;;2733,9104;71,557739;-117,15687;-54,166668;;;;;22,816401;52,020813;;;;;;;;;;;;;;;;;;;;2;2;;60304;50098;128;130;209;140;8;17;7;1;11;255;;;;;;;;;;;;;;;;;;;;;;;;;;;;;;;;;;;;;;;;;
200,5329;2,4901962;2,5490198;4,1176472;2,7254903;0,17647059;0,33333334;0,13725491;0,019607844;;;;;;;;;;;2782,2068;71,122009;-116,17648;-54,166668;;;;;22,638147;52,020813;;;;;;;;;;;;;;;;;;;;2;2;;60304;50118;127;130;210;139;9;17;7;1;6;255;;;;;;;;;;;;;;;;;;;;;;;;;;;;;;;;;;;;;;;;;
200,54185;2,4901962;2,5490198;4,0980392;2,7450981;0,17647059;0,33333334;0,13725491;0,019607844;;;;;;;;;;;2733,9104;71,557739;-116,17648;-54,166668;;;;;22,638147;52,020813;;;;;;;;;;;;;;;;;;;;2;2;;60304;50138;127;130;209;140;9;17;7;1;11;140;;;;;;;;;;;;;;;;;;;;;;;;;;;;;;;;;;;;;;;;;
200,5508;2,4901962;2,5490198;4,0980392;2,7450981;0,15686275;0,33333334;0,13725491;0,019607844;;;;;;;;;;;2733,9104;71,557739;-117,15687;-54,166668;;;;;22,638147;52,020813;;;;;;;;;;;;;;;;;;;;2;2;;60304;50158;127;130;209;140;8;17;7;1;11;255;;;;;;;;;;;;;;;;;;;;;;;;;;;;;;;;;;;;;;;;;
200,5598;2,4901962;2,5490198;4,0980392;2,7254903;0,15686275;0,33333334;0,13725491;0,019607844;;;;;;;;;;;2782,2068;71,122009;-117,15687;-54,166668;;;;;22,638147;52,020813;;;;;;;;;;;;;;;;;;;;2;2;;60304;50178;127;130;209;139;8;17;7;1;11;255;;;;;;;;;;;;;;;;;;;;;;;;;;;;;;;;;;;;;;;;;
200,56875;2,4901962;2,5490198;4,0980392;2,7450981;0,15686275;0,33333334;0,13725491;0,019607844;;;;;;;;;;;2733,9104;71,557739;-117,15687;-54,166668;;;;;22,638147;52,020813;;;;;;;;;;;;;;;;;;;;2;2;;60304;50198;127;130;209;140;8;17;7;1;4;255;;;;;;;;;;;;;;;;;;;;;;;;;;;;;;;;;;;;;;;;;
200,5777;2,4901962;2,5490198;4,0980392;2,7254903;0,15686275;0,3137255;0,13725491;0,019607844;;;;;;;;;;;2782,2068;71,122009;-117,15687;-54,656864;;;;;22,638147;52,020813;;;;;;;;;;;;;;;;;;;;2;2;;60304;50218;127;130;209;139;8;16;7;1;11;255;;;;;;;;;;;;;;;;;;;;;;;;;;;;;;;;;;;;;;;;;
200,58665;2,4901962;2,5490198;4,1176472;2,7254903;0,17647059;0,3137255;0,13725491;0,019607844;;;;;;;;;;;2782,2068;71,122009;-116,17648;-54,656864;;;;;22,638147;52,020813;;;;;;;;;;;;;;;;;;;;2;2;;60304;50238;127;130;210;139;9;16;7;1;15;140;;;;;;;;;;;;;;;;;;;;;;;;;;;;;;;;;;;;;;;;;
200,5956;2,4901962;2,5294118;4,1176472;2,7254903;0,15686275;0,3137255;0,13725491;0,019607844;;;;;;;;;;;2782,2068;71,122009;-117,15687;-54,656864;;;;;22,638147;51,620647;;;;;;;;;;;;;;;;;;;;2;2;;60304;50258;127;129;210;139;8;16;7;1;11;255;;;;;;;;;;;;;;;;;;;;;;;;;;;;;;;;;;;;;;;;;
200,6046;2,4901962;2,5490198;4,0980392;2,7254903;0,17647059;0,33333334;0,13725491;0,019607844;112,05325;113,87625;113,362;113,42752;113,4537;100,94156;114,99765;113,83643;112,93295;112,30585;2782,2068;71,122009;-116,17648;-54,166668;;;;;22,638147;52,020813;;;;;;;;;;479,89893;456,3223;462,83289;461,99774;461,66373;658,69727;442,49338;456,82281;468,34818;476,54825;2;2;;60304;50278;127;130;209;139;9;17;7;1;161;255;2;2;;41121;3001;2860;2899;2894;2892;4050;2777;2863;2932;2981;1324;1204;;;;;;;;;;;;;;;;;;;;;;;;;
200,61355;2,4901962;2,5490198;4,0980392;2,7254903;0,15686275;0,3137255;0,13725491;0,019607844;;;;;;;;;;;2782,2068;71,122009;-117,15687;-54,656864;;;;;22,638147;52,020813;;;;;;;;;;;;;;;;;;;;2;2;;60304;50298;127;130;209;139;8;16;7;1;11;255;;;;;;;;;;;;;;;;;;;;;;;;;;;;;;;;;;;;;;;;;
200,6225;2,4901962;2,5490198;4,1176472;2,7254903;0,15686275;0,33333334;0,13725491;0,019607844;;;;;;;;;;;2782,2068;71,122009;-117,15687;-54,166668;;;;;22,638147;52,020813;;;;;;;;;;;;;;;;;;;;2;2;;60304;50318;127;130;210;139;8;17;7;1;10;255;;;;;;;;;;;;;;;;;;;;;;;;;;;;;;;;;;;;;;;;;
200,63145;2,4901962;2,5490198;4,0980392;2,7450981;0,15686275;0,33333334;0,13725491;0,019607844;;;;;;;;;;;2733,9104;71,557739;-117,15687;-54,166668;;;;;22,638147;52,020813;;;;;;;;;;;;;;;;;;;;2;2;;60304;50338;127;130;209;140;8;17;7;1;11;140;;;;;;;;;;;;;;;;;;;;;;;;;;;;;;;;;;;;;;;;;
200,6404;2,509804;2,5490198;4,1176472;2,7450981;0,17647059;0,33333334;0,13725491;0,019607844;;;;;;;;;;;2733,9104;71,557739;-116,17648;-54,166668;;;;;22,816401;52,020813;;;;;;;;;;;;;;;;;;;;2;2;;60304;50358;128;130;210;140;9;17;7;1;11;255;;;;;;;;;;;;;;;;;;;;;;;;;;;;;;;;;;;;;;;;;
200,6494;2,4901962;2,5490198;4,1176472;2,7254903;0,17647059;0,33333334;0,13725491;0,019607844;;;;;;;;;;;2782,2068;71,122009;-116,17648;-54,166668;;;;;22,638147;52,020813;;;;;;;;;;;;;;;;;;;;2;2;;60304;50378;127;130;210;139;9;17;7;1;6;255;;;;;;;;;;;;;;;;;;;;;;;;;;;;;;;;;;;;;;;;;
200,6579;2,4901962;2,5490198;4,1176472;2,7254903;0,17647059;0,33333334;0,13725491;0,019607844;;;;;;;;;;;2782,2068;71,122009;-116,17648;-54,166668;;;;;22,638147;52,020813;;;0,1098;;;;;;;;;;;;;;;;;2;2;;60304;50397;127;130;210;139;9;17;7;1;49;150;;;;;;;;;;;;;;;;;;;;;;;;;;;;;;;;150;;;;;;;;;
200,66685;2,4901962;2,5490198;4,0980392;2,7254903;0,15686275;0,33333334;0,13725491;0,019607844;;;;;;;;;;;2782,2068;71,122009;-117,15687;-54,166668;;;;;22,638147;52,020813;;;0,11346;;;;;;;;;;;;;;;;;2;2;;60304;50417;127;130;209;139;8;17;7;1;68;155;;;;;;;;;;;;;;;;;;;;;;;;;;;;;;;;155;;;;;;;;;
200,6758;2,509804;2,5490198;4,0980392;2,7450981;0,17647059;0,33333334;0,13725491;0,019607844;;;;;;;;;;;2733,9104;71,557739;-116,17648;-54,166668;;;;;22,816401;52,020813;;;;;;;;;;;;;;;;;;;;2;2;;60304;50437;128;130;209;140;9;17;7;1;55;9;;;;;;;;;;;;;;;;;;;;;;;;;;;;;;;;;;;;;;;;;
200,68475;2,4901962;2,5490198;4,0980392;2,7450981;0,15686275;0,33333334;0,13725491;0,019607844;;;;;;;;;;;2733,9104;71,557739;-117,15687;-54,166668;;;;;22,638147;52,020813;;;0,115656;;;;;;;;;;;;;;;;;2;2;;60304;50457;127;130;209;140;8;17;7;1;195;158;;;;;;;;;;;;;;;;;;;;;;;;;;;;;;;;158;;;;;;;;;
200,69375;2,4901962;2,5490198;4,0980392;2,7254903;0,15686275;0,33333334;0,13725491;0,019607844;;;;;;;;;;;2782,2068;71,122009;-117,15687;-54,166668;;;;;22,638147;52,020813;;;0,115656;;;;;;;;;;;;;;;;;2;2;;60304;50477;127;130;209;139;8;17;7;1;121;158;;;;;;;;;;;;;;;;;;;;;;;;;;;;;;;;158;;;;;;;;;
200,7027;2,4901962;2,5490198;4,0980392;2,7450981;0,15686275;0,33333334;0,13725491;0,019607844;;;;;;;;;;;2733,9104;71,557739;-117,15687;-54,166668;;;;;22,638147;52,020813;;;0,11785199;;;;;;;;;;;;;;;;;2;2;;60304;50497;127;130;209;140;8;17;7;1;217;161;;;;;;;;;;;;;;;;;;;;;;;;;;;;;;;;161;;;;;;;;;
200,71165;2,4901962;2,5490198;4,0980392;2,7450981;0,15686275;0,33333334;0,13725491;0,019607844;;;;;;;;;;;2733,9104;71,557739;-117,15687;-54,166668;;;;;22,638147;52,020813;;;0,114924;;;;;;;;;;;;;;;;;2;2;;60304;50517;127;130;209;140;8;17;7;1;82;157;;;;;;;;;;;;;;;;;;;;;;;;;;;;;;;;157;;;;;;;;;
200,7206;2,4901962;2,5490198;4,0980392;2,7254903;0,15686275;0,3137255;0,13725491;0,019607844;;;;;;;;;;;2782,2068;71,122009;-117,15687;-54,656864;;;;;22,638147;52,020813;;;;;;;;;;;;;;;;;;;;2;2;;60304;50537;127;130;209;139;8;16;7;1;160;9;;;;;;;;;;;;;;;;;;;;;;;;;;;;;;;;;;;;;;;;;
200,7296;2,4901962;2,5490198;4,0980392;2,7450981;0,15686275;0,33333334;0,13725491;0,019607844;;;;;;;;;;;2733,9104;71,557739;-117,15687;-54,166668;;;;;22,638147;52,020813;;;0,111264;;;;;;;;;;;;;;;;;2;2;;60304;50557;127;130;209;140;8;17;7;1;170;152;;;;;;;;;;;;;;;;;;;;;;;;;;;;;;;;152;;;;;;;;;
200,73855;2,4901962;2,5490198;4,0980392;2,7254903;0,15686275;0,33333334;0,13725491;0,019607844;;;;;;;;;;;2782,2068;71,122009;-117,15687;-54,166668;;;;;22,638147;52,020813;;;0,120048;;;;;;;;;;;;;;;;;2;2;;60304;50577;127;130;209;139;8;17;7;1;214;164;;;;;;;;;;;;;;;;;;;;;;;;;;;;;;;;164;;;;;;;;;
200,7475;2,4901962;2,5490198;4,1176472;2,7254903;0,17647059;0,33333334;0,13725491;0,019607844;;;;;;;;;;;2782,2068;71,122009;-116,17648;-54,166668;;;;;22,638147;52,020813;;;0,108336;;;;;;;;;;;;;;;;;2;2;;60304;50597;127;130;210;139;9;17;7;1;71;148;;;;;;;;;;;;;;;;;;;;;;;;;;;;;;;;148;;;;;;;;;
200,75645;2,4901962;2,5490198;4,0980392;2,7450981;0,15686275;0,33333334;0,13725491;0,019607844;;;;;;;;;;;2733,9104;71,557739;-117,15687;-54,166668;;;;;22,638147;52,020813;;;0,108336;;;;;;;;;;;;;;;;;2;2;;60304;50617;127;130;209;140;8;17;7;1;183;148;;;;;;;;;;;;;;;;;;;;;;;;;;;;;;;;148;;;;;;;;;
200,7654;2,4901962;2,5490198;4,1176472;2,7254903;0,15686275;0,33333334;0,13725491;0,019607844;;;;;;;;;;;2782,2068;71,122009;-117,15687;-54,166668;;;;;22,638147;52,020813;;;;;;;;;;;;;;;;;;;;2;2;;60304;50637;127;130;210;139;8;17;7;1;45;9;;;;;;;;;;;;;;;;;;;;;;;;;;;;;;;;;;;;;;;;;
200,7744;2,4901962;2,5490198;4,1176472;2,7254903;0,15686275;0,33333334;0,13725491;0,019607844;;;;;;;;;;;2782,2068;71,122009;-117,15687;-54,166668;;;;;22,638147;52,020813;;;0,107604;;;;;;;;;;;;;;;;;2;2;;60304;50657;127;130;210;139;8;17;7;1;49;147;;;;;;;;;;;;;;;;;;;;;;;;;;;;;;;;147;;;;;;;;;
200,78335;2,4901962;2,5490198;4,0980392;2,7450981;0,15686275;0,33333334;0,13725491;0,019607844;;;;;;;;;;;2733,9104;71,557739;-117,15687;-54,166668;;;;;22,638147;52,020813;;;0,108336;;;;;;;;;;;;;;;;;2;2;;60304;50677;127;130;209;140;8;17;7;1;74;148;;;;;;;;;;;;;;;;;;;;;;;;;;;;;;;;148;;;;;;;;;
200,79185;2,4901962;2,5490198;4,1176472;2,7254903;0,15686275;0,33333334;0,13725491;0,019607844;;;;;;;;;;;2782,2068;71,122009;-117,15687;-54,166668;;;;;22,638147;52,020813;;;;;;;;;;;;;;;;;;;;2;2;;60304;50696;127;130;210;139;8;17;7;1;11;0;;;;;;;;;;;;;;;;;;;;;;;;;;;;;;;;;;;;;;;;;
200,7999;2,4901962;2,5490198;4,0980392;2,7450981;0,15686275;0,33333334;0,13725491;0,019607844;;;;;;;;;;;2733,9104;71,557739;-117,15687;-54,166668;;;;;22,638147;52,020813;;;;;;;;;;;;;;;;;;;;2;2;;60304;50714;127;130;209;140;8;17;7;1;11;5;;;;;;;;;;;;;;;;;;;;;;;;;;;;;;;;;;;;;;;;;
200,80885;2,4901962;2,5490198;4,1176472;2,7450981;0,17647059;0,33333334;0,13725491;0,019607844;;;;;;;;;;;2733,9104;71,557739;-116,17648;-54,166668;;;;;22,638147;52,020813;;;;;;;;;;;;;;;;;;;;2;2;;60304;50734;127;130;210;140;9;17;7;1;10;77;;;;;;;;;;;;;;;;;;;;;;;;;;;;;;;;;;;;;;;;;
200,81785;2,4901962;2,5294118;4,0980392;2,7450981;0,15686275;0,33333334;0,13725491;0,019607844;;;;;;;;;;;2733,9104;71,557739;-117,15687;-54,166668;;;;;22,638147;51,620647;;;;;;;;;;;;;;;;;;;;2;2;;60304;50754;127;129;209;140;8;17;7;1;11;4;;;;;;;;;;;;;;;;;;;;;;;;;;;;;;;;;;;;;;;;;
200,82635;2,4901962;2,5490198;4,0980392;2,7254903;0,15686275;0,33333334;0,13725491;0,019607844;;;;;;;;;;;2782,2068;71,122009;-117,15687;-54,166668;;;;;22,638147;52,020813;-0,30817199;;;;;;;;;;;;;;;;;;;2;2;;60304;50773;127;130;209;139;8;17;7;1;183;91;;;;;;;;;;;;;;;;;;;;;;;;;;;;;;-421;;;;;;;;;;;
200,8353;2,4901962;2,5490198;4,0980392;2,7450981;0,15686275;0,33333334;0,13725491;0,019607844;;;;;;;;;;;2733,9104;71,557739;-117,15687;-54,166668;;;;;22,638147;52,020813;-0,30890399;;;;;;;;;;;;;;;;;;;2;2;;60304;50793;127;130;209;140;8;17;7;1;143;90;;;;;;;;;;;;;;;;;;;;;;;;;;;;;;-422;;;;;;;;;;;
200,84335;2,4901962;2,5490198;4,1176472;2,7254903;0,17647059;0,33333334;0,13725491;0,019607844;;;;;;;;;;;2782,2068;71,122009;-116,17648;-54,166668;;;;;22,638147;52,020813;;;;;;;;;;;;;;;;;;;;2;2;;60304;50811;127;130;210;139;9;17;7;1;212;4;;;;;;;;;;;;;;;;;;;;;;;;;;;;160;;;;;;;;;;;;;
200,85235;2,4901962;2,5490198;4,1176472;2,7254903;0,15686275;0,3137255;0,13725491;0,019607844;;;;;;;;;;;2782,2068;71,122009;-117,15687;-54,656864;0;69,2944192;16,0199188;41500;22,638147;52,020813;;;;;;;;;;;;;;;;;;;;2;2;;60304;50831;127;130;210;139;8;16;7;1;75;161;;;;;;;;;;;;;;;;;2;2;;41121;3;0;0;692944192;160199188;415;0;;;;;;;;;;;;;;
200,8613;2,4901962;2,5490198;4,0980392;2,7450981;0,15686275;0,33333334;0,13725491;0,019607844;;;;;;;;;;;2733,9104;71,557739;-117,15687;-54,166668;;;;;22,638147;52,020813;;;;;;;;;;;;;;;;;;;;2;2;;60304;50851;127;130;209;140;8;17;7;1;186;1;;;;;;;;;;;;;;;;;;;;;;;;;;;;160;;;;;;;;;;;;;
200,87025;2,4901962;2,5294118;4,0980392;2,7254903;0,17647059;0,3137255;0,13725491;0,019607844;;;;;;;;;;;2782,2068;71,122009;-116,17648;-54,656864;;;;;22,638147;51,620647;;;;;;;;;;;;;;;;;;;;2;2;;60304;50871;127;129;209;139;9;16;7;1;174;2;;;;;;;;;;;;;;;;;;;;;;;;;;;;160;;;;;;;;;;;;;
200,8792;2,4901962;2,5490198;4,1176472;2,7254903;0,17647059;0,33333334;0,13725491;0,019607844;;;;;;;;;;;2782,2068;71,122009;-116,17648;-54,166668;;;;;22,638147;52,020813;;;;;;;;;;;;;;;;;;;;2;2;;60304;50891;127;130;210;139;9;17;7;1;45;3;;;;;;;;;;;;;;;;;;;;;;;;;;;;160;;;;;;;;;;;;;
200,88815;2,4901962;2,5490198;4,1176472;2,7254903;0,17647059;0,33333334;0,13725491;0,019607844;;;;;;;;;;;2782,2068;71,122009;-116,17648;-54,166668;;;;;22,638147;52,020813;;;;;;;;;;;;;;;;;;;;2;2;;60304;50911;127;130;210;139;9;17;7;1;68;4;;;;;;;;;;;;;;;;;;;;;;;;;;;;160;;;;;;;;;;;;;
200,89715;2,4901962;2,5490198;4,1176472;2,7254903;0,17647059;0,3137255;0,13725491;0,019607844;;;;;;;;;;;2782,2068;71,122009;-116,17648;-54,656864;0;69,2944192;16,0199188;41500;22,638147;52,020813;;;;;;;;;;;;;;;;;;;;2;2;;60304;50931;127;130;210;139;9;16;7;1;52;161;;;;;;;;;;;;;;;;;2;2;;41121;3;0;0;692944192;160199188;415;0;;;;;;;;;;;;;;
200,9061;2,4901962;2,5490198;4,1176472;2,7254903;0,15686275;0,33333334;0,13725491;0,019607844;;;;;;;;;;;2782,2068;71,122009;-117,15687;-54,166668;;;;;22,638147;52,020813;;;;;;;;;;;;;;;;;;;;2;2;;60304;50951;127;130;210;139;8;17;7;1;230;1;;;;;;;;;;;;;;;;;;;;;;;;;;;;160;;;;;;;;;;;;;
200,91505;2,4901962;2,5490198;4,0980392;2,7450981;0,15686275;0,3137255;0,13725491;0,019607844;;;;;;;;;;;2733,9104;71,557739;-117,15687;-54,656864;;;;;22,638147;52,020813;;;;;;;;;;;;;;;;;;;;2;2;;60304;50971;127;130;209;140;8;16;7;1;122;2;;;;;;;;;;;;;;;;;;;;;;;;;;;;160;;;;;;;;;;;;;
200,924;2,4901962;2,5490198;4,0980392;2,7254903;0,15686275;0,33333334;0,13725491;0,019607844;;;;;;;;;;;2782,2068;71,122009;-117,15687;-54,166668;;;;;22,638147;52,020813;;;;;;;;;;;;;;;;;;;;2;2;;60304;50991;127;130;209;139;8;17;7;1;220;3;;;;;;;;;;;;;;;;;;;;;;;;;;;;160;;;;;;;;;;;;;
200,93295;2,4901962;2,5490198;4,0980392;2,7254903;0,17647059;0,33333334;0,13725491;0,019607844;;;;;;;;;;;2782,2068;71,122009;-116,17648;-54,166668;;;;;22,638147;52,020813;;;;;;;;;;;;;;;;;;;;2;2;;60304;51011;127;130;209;139;9;17;7;1;89;4;;;;;;;;;;;;;;;;;;;;;;;;;;;;160;;;;;;;;;;;;;
200,94195;2,509804;2,5490198;4,0980392;2,7254903;0,17647059;0,33333334;0,13725491;0,019607844;;;;;;;;;;;2782,2068;71,122009;-116,17648;-54,166668;0;69,2944192;16,0199188;41500;22,816401;52,020813;;;;;;;;;;;;;;;;;;;;2;2;;60304;51031;128;130;209;139;9;17;7;1;160;161;;;;;;;;;;;;;;;;;2;2;;41121;3;0;0;692944192;160199188;415;0;;;;;;;;;;;;;;
200,9509;2,4901962;2,5490198;4,0980392;2,7254903;0,15686275;0,33333334;0,13725491;0,019607844;;;;;;;;;;;2782,2068;71,122009;-117,15687;-54,166668;;;;;22,638147;52,020813;;;;;;;;;;;;;;;;;;;;2;2;;60304;51051;127;130;209;139;8;17;7;1;169;1;;;;;;;;;;;;;;;;;;;;;;;;;;;;160;;;;;;;;;;;;;
200,95985;2,4901962;2,5490198;4,1176472;2,7254903;0,17647059;0,33333334;0,13725491;0,019607844;;;;;;;;;;;2782,2068;71,122009;-116,17648;-54,166668;;;;;22,638147;52,020813;;;;;;;;;;;;;;;;;;;;2;2;;60304;51071;127;130;210;139;9;17;7;1;211;2;;;;;;;;;;;;;;;;;;;;;;;;;;;;160;;;;;;;;;;;;;
200,9688;2,4901962;2,5490198;4,0980392;2,7450981;0,17647059;0,3137255;0,13725491;0,019607844;;;;;;;;;;;2733,9104;71,557739;-116,17648;-54,656864;;;;;22,638147;52,020813;;;;;;;;;;;;;;;;;;;;2;2;;60304;51091;127;130;209;140;9;16;7;1;75;3;;;;;;;;;;;;;;;;;;;;;;;;;;;;160;;;;;;;;;;;;;
200,9769;;;;;;;;;;;;;;;;;;;;;;;;;;;;;;;;;;;;;-0,21378;;;;;;;;;;;;;;;;;;;;;;;;;;;;;;;;;;;;;;;;;;;;;;;;;;;;;;;;;;;;;;;-1527;;;
200,98585;2,4901962;2,5490198;4,1176472;2,7254903;0,15686275;0,3137255;0,13725491;0,019607844;;;;;;;;;;;2782,2068;71,122009;-117,15687;-54,656864;;;;;22,638147;52,020813;;;;;;;;;-0,21336001;;;;;;;;;;;2;2;;60304;51129;127;130;210;139;8;16;7;1;170;12;;;;;;;;;;;;;;;;;;;;;;;;;;;;;;;;;;;;;;-1524;;;
200,9948;2,4901962;2,5490198;4,0980392;2,7450981;0,15686275;0,3137255;0,13725491;0,019607844;;;;;;;;;;;2733,9104;71,557739;-117,15687;-54,656864;;;;;22,638147;52,020813;;;;;;;;;;;;;;;;;;;;2;2;;60304;51149;127;130;209;140;8;16;7;1;208;0;;;;;;;;;;;;;;;;;;;;;;;;;;;;;;;;;;;;;;;;;
201,00375;2,4901962;2,5490198;4,0980392;2,7254903;0,15686275;0,33333334;0,13725491;0,019607844;;;;;;;;;;;2782,2068;71,122009;-117,15687;-54,166668;;;;;22,638147;52,020813;;;;;;;;;-0,21056001;;;;;;;;;;;2;2;;60304;51169;127;130;209;139;8;17;7;1;71;32;;;;;;;;;;;;;;;;;;;;;;;;;;;;;;;;;;;;;;-1504;;;
201,0127;2,4901962;2,5490198;4,1176472;2,7450981;0,17647059;0,33333334;0,13725491;0,019607844;;;;;;;;;;;2733,9104;71,557739;-116,17648;-54,166668;;;;;22,638147;52,020813;;;;;;;;;-0,21056001;;;;;;;;;;;2;2;;60304;51189;127;130;210;140;9;17;7;1;181;32;;;;;;;;;;;;;;;;;;;;;;;;;;;;;;;;;;;;;;-1504;;;
201,02165;2,4901962;2,5294118;4,0980392;2,7254903;0,15686275;0,33333334;0,13725491;0,019607844;;;;;;;;;;;2782,2068;71,122009;-117,15687;-54,166668;;;;;22,638147;51,620647;;;;;;;;;-0,20636001;;;;;;;;;;;2;2;;60304;51209;127;129;209;139;8;17;7;1;5;62;;;;;;;;;;;;;;;;;;;;;;;;;;;;;;;;;;;;;;-1474;;;
201,03065;2,4901962;2,5490198;4,0980392;2,7254903;0,17647059;0,3137255;0,13725491;0,019607844;;;;;;;;;;;2782,2068;71,122009;-116,17648;-54,656864;;;;;22,638147;52,020813;;;;;;;;;-0,20272;;;;;;;;;;;2;2;;60304;51229;127;130;209;139;9;16;7;1;47;88;;;;;;;;;;;;;;;;;;;;;;;;;;;;;;;;;;;;;;-1448;;;
201,0396;2,4901962;2,5294118;4,0980392;2,7254903;0,15686275;0,3137255;0,13725491;0,019607844;;;;;;;;;;;2782,2068;71,122009;-117,15687;-54,656864;;;;;22,638147;51,620647;;;;;;;;;;;;;;;;;;;;2;2;;60304;51249;127;129;209;139;8;16;7;1;74;0;;;;;;;;;;;;;;;;;;;;;;;;;;;;;;;;;;;;;;;;;
201,04765;2,4901962;2,5490198;4,1176472;2,7254903;0,17647059;0,3137255;0,13725491;0,019607844;;;;;;;;;;;2782,2068;71,122009;-116,17648;-54,656864;;;;;22,638147;52,020813;;;;;;;;-0,59332001;;;;;;;;;;;;2;2;;60304;51267;127;130;210;139;9;16;7;1;184;114;;;;;;;;;;;;;;;;;;;;;;;;;;;;;;;;;;;;;-4238;;;;
201,05615;2,4901962;2,5490198;4,0980392;2,7254903;0,15686275;0,33333334;0,13725491;0,019607844;;;;;;;;;;;2782,2068;71,122009;-117,15687;-54,166668;;;;;22,638147;52,020813;;;;;;;;;;;;;;;;;;;;2;2;;60304;51286;127;130;209;139;8;17;7;1;11;239;;;;;;;;;;;;;;;;;;;;;;;;;;;;;;;;;;;;;;;;;
201,06515;2,4901962;2,5490198;4,0980392;2,7254903;0,15686275;0,33333334;0,13725491;0,019607844;;;;;;;;;;;2782,2068;71,122009;-117,15687;-54,166668;;;;;22,638147;52,020813;;;;;;;;;;;;;;;;;;;;2;2;;60304;51306;127;130;209;139;8;17;7;1;10;239;;;;;;;;;;;;;;;;;;;;;;;;;;;;;;;;;;;;;;;;;
201,0732;2,4901962;2,5490198;4,1176472;2,7254903;0,17647059;0,3137255;0,13725491;0,019607844;;;;;;;;;;;2782,2068;71,122009;-116,17648;-54,656864;;;;;22,638147;52,020813;;;;;;;;;;;;;;;;;;;;2;2;;60304;51324;127;130;210;139;9;16;7;1;11;5;;;;;;;;;;;;;;;;;;;;;;;;;;;;;;;;;;;;;;;;;
201,08215;2,4901962;2,5490198;4,0980392;2,7450981;0,15686275;0,33333334;0,13725491;0,019607844;112,15405;113,87625;113,25751;113,44061;113,44061;100,78009;114,99765;113,82315;112,86844;112,30585;2733,9104;71,557739;-117,15687;-54,166668;;;;;22,638147;52,020813;;;;;;;;;;478,55841;456,3223;464,16937;461,83072;461,83072;661,81854;442,49338;456,98969;469,18433;476,54825;2;2;;60304;51344;127;130;209;140;8;17;7;1;161;0;2;2;;41121;2993;2860;2907;2893;2893;4068;2777;2864;2937;2981;1756;1094;;;;;;;;;;;;;;;;;;;;;;;;;
201,0911;2,509804;2,5294118;4,1176472;2,7450981;0,15686275;0,33333334;0,13725491;0,019607844;;;;;;;;;;;2733,9104;71,557739;-117,15687;-54,166668;;;;;22,816401;51,620647;;;;;;;;;;;;;;;;;;;;2;2;;60304;51364;128;129;210;140;8;17;7;1;11;5;;;;;;;;;;;;;;;;;;;;;;;;;;;;;;;;;;;;;;;;;
201,09965;;;;;;;;;;;;;;;;;;;;;;;;;;;;;;;;;;0,91000003;;;;;;;;;;;;;;;;;;;;;;;;;;;;;;;;;;;;;;;;;;;;;;;;;;;;;;;;;;;;;;;13;;;;;;
201,1086;2,509804;2,5490198;4,0980392;2,7254903;0,17647059;0,33333334;0,13725491;0,019607844;;;;;;;;;;;2782,2068;71,122009;-116,17648;-54,166668;;;;;22,816401;52,020813;;;;;;0,91000003;;;;;;;;;;;;;;2;2;;60304;51403;128;130;209;139;9;17;7;1;70;13;;;;;;;;;;;;;;;;;;;;;;;;;;;;;;;;;;;13;;;;;;
201,11665;2,4901962;2,5490198;4,0980392;2,7254903;0,17647059;0,33333334;0,13725491;0,019607844;;;;;;;;;;;2782,2068;71,122009;-116,17648;-54,166668;;;;;22,638147;52,020813;;;;;0,76999998;;;;;;;;;;;;;;;2;2;;60304;51421;127;130;209;139;9;17;7;1;160;11;;;;;;;;;;;;;;;;;;;;;;;;;;;;;;;;;;11;;;;;;;
201,1256;2,4901962;2,5490198;4,0980392;2,7254903;0,15686275;0,33333334;0,13725491;0,019607844;;;;;;;;;;;2782,2068;71,122009;-117,15687;-54,166668;;;;;22,638147;52,020813;;;;;;;;;;;;;;;;;;;;2;2;;60304;51441;127;130;209;139;8;17;7;1;168;0;;;;;;;;;;;;;;;;;;;;;;;;;;;;;;;;;;;;;;;;;
201,13455;2,4901962;2,5490198;4,0980392;2,7450981;0,15686275;0,33333334;0,13725491;0,019607844;;;;;;;;;;;2733,9104;71,557739;-117,15687;-54,166668;;;;;22,638147;52,020813;;;;;0,63;;;;;;;;;;;;;;;2;2;;60304;51461;127;130;209;140;8;17;7;1;212;9;;;;;;;;;;;;;;;;;;;;;;;;;;;;;;;;;;9;;;;;;;
201,14355;2,4901962;2,5490198;4,0980392;2,7450981;0,17647059;0,3137255;0,13725491;0,019607844;;;;;;;;;;;2733,9104;71,557739;-116,17648;-54,656864;;;;;22,638147;52,020813;;;;;1,05;;;;;;;;;;;;;;;2;2;;60304;51481;127;130;209;140;9;16;7;1;77;15;;;;;;;;;;;;;;;;;;;;;;;;;;;;;;;;;;15;;;;;;;
201,1525;2,509804;2,5490198;4,1176472;2,7254903;0,15686275;0,33333334;0,13725491;0,019607844;;;;;;;;;;;2782,2068;71,122009;-117,15687;-54,166668;;;;;22,816401;52,020813;;;;;0,69999999;;;;;;;;;;;;;;;2;2;;60304;51501;128;130;210;139;8;17;7;1;186;10;;;;;;;;;;;;;;;;;;;;;;;;;;;;;;;;;;10;;;;;;;
201,16145;2,4901962;2,5294118;4,0980392;2,7254903;0,15686275;0,33333334;0,13725491;0,019607844;;;;;;;;;;;2782,2068;71,122009;-117,15687;-54,166668;;;;;22,638147;51,620647;;;;;0,91000003;;;;;;;;;;;;;;;2;2;;60304;51521;127;129;209;139;8;17;7;1;197;13;;;;;;;;;;;;;;;;;;;;;;;;;;;;;;;;;;13;;;;;;;
201,1704;2,4901962;2,5490198;4,0980392;2,7254903;0,15686275;0,33333334;0,13725491;0,019607844;;;;;;;;;;;2782,2068;71,122009;-117,15687;-54,166668;;;;;22,638147;52,020813;;;;;;;;;;;;;;;;;;;;2;2;;60304;51541;127;130;209;139;8;17;7;1;46;0;;;;;;;;;;;;;;;;;;;;;;;;;;;;;;;;;;;;;;;;;
201,17935;2,4901962;2,5294118;4,1176472;2,7254903;0,15686275;0,33333334;0,13725491;0,019607844;;;;;;;;;;;2782,2068;71,122009;-117,15687;-54,166668;;;;;22,638147;51,620647;;;;;0,56;;;;;;;;;;;;;;;2;2;;60304;51561;127;129;210;139;8;17;7;1;77;8;;;;;;;;;;;;;;;;;;;;;;;;;;;;;;;;;;8;;;;;;;
201,18835;2,509804;2,5490198;4,0980392;2,7254903;0,15686275;0,3137255;0,13725491;0,019607844;;;;;;;;;;;2782,2068;71,122009;-117,15687;-54,656864;;;;;22,816401;52,020813;;;;;0,76999998;;;;;;;;;;;;;;;2;2;;60304;51581;128;130;209;139;8;16;7;1;52;11;;;;;;;;;;;;;;;;;;;;;;;;;;;;;;;;;;11;;;;;;;
201,1973;2,4901962;2,5490198;4,0980392;2,7450981;0,15686275;0,33333334;0,13725491;0,019607844;;;;;;;;;;;2733,9104;71,557739;-117,15687;-54,166668;;;;;22,638147;52,020813;;;;;0,63;;;;;;;;;;;;;;;2;2;;60304;51601;127;130;209;140;8;17;7;1;162;9;;;;;;;;;;;;;;;;;;;;;;;;;;;;;;;;;;9;;;;;;;
201,20625;2,4901962;2,5490198;4,0980392;2,7450981;0,15686275;0,3137255;0,13725491;0,019607844;;;;;;;;;;;2733,9104;71,557739;-117,15687;-54,656864;;;;;22,638147;52,020813;;;;;1,26;;;;;;;;;;;;;;;2;2;;60304;51621;127;130;209;140;8;16;7;1;121;18;;;;;;;;;;;;;;;;;;;;;;;;;;;;;;;;;;18;;;;;;;
201,2152;2,4901962;2,5490198;4,0980392;2,7450981;0,15686275;0,33333334;0,13725491;0,019607844;;;;;;;;;;;2733,9104;71,557739;-117,15687;-54,166668;;;;;22,638147;52,020813;;;;;;;;;;;;;;;;;;;;2;2;;60304;51641;127;130;209;140;8;17;7;1;221;0;;;;;;;;;;;;;;;;;;;;;;;;;;;;;;;;;;;;;;;;;
201,22415;2,509804;2,5490198;4,1176472;2,7450981;0,17647059;0,3137255;0,13725491;0,019607844;;;;;;;;;;;2733,9104;71,557739;-116,17648;-54,656864;;;;;22,816401;52,020813;;;;;0,91000003;;;;;;;;;;;;;;;2;2;;60304;51661;128;130;210;140;9;16;7;1;91;13;;;;;;;;;;;;;;;;;;;;;;;;;;;;;;;;;;13;;;;;;;
201,23315;2,4901962;2,5490198;4,0980392;2,7254903;0,17647059;0,33333334;0,13725491;0,019607844;;;;;;;;;;;2782,2068;71,122009;-116,17648;-54,166668;;;;;22,638147;52,020813;;;;;0,98000002;;;;;;;;;;;;;;;2;2;;60304;51681;127;130;209;139;9;17;7;1;160;14;;;;;;;;;;;;;;;;;;;;;;;;;;;;;;;;;;14;;;;;;;
201,2412;2,4901962;2,5490198;4,0980392;2,7254903;0,15686275;0,3137255;0,13725491;0,019607844;;;;;;;;;;;2782,2068;71,122009;-117,15687;-54,656864;;;;;22,638147;52,020813;;;;-2,5899999;;;;;;;;;;;;;;;;2;2;;60304;51699;127;130;209;139;8;16;7;1;121;219;;;;;;;;;;;;;;;;;;;;;;;;;;;;;;;;;-37;;;;;;;;
201,24925;2,4901962;2,5490198;4,1176472;2,7254903;0,15686275;0,3137255;0,13725491;0,019607844;;;;;;;;;;;2782,2068;71,122009;-117,15687;-54,656864;;;;;22,638147;52,020813;;;0,118584;;;;;;;;;;;;;;;;;2;2;;60304;51717;127;130;210;139;8;16;7;1;69;162;;;;;;;;;;;;;;;;;;;;;;;;;;;;;;;;162;;;;;;;;;
201,2582;2,4901962;2,5490198;4,0980392;2,7450981;0,15686275;0,33333334;0,13725491;0,019607844;;;;;;;;;;;2733,9104;71,557739;-117,15687;-54,166668;;;;;22,638147;52,020813;;;;;;;;;;;;;;;;;;;;2;2;;60304;51737;127;130;209;140;8;17;7;1;51;9;;;;;;;;;;;;;;;;;;;;;;;;;;;;;;;;;;;;;;;;;
201,26715;2,4901962;2,5490198;4,0980392;2,7450981;0,15686275;0,33333334;0,13725491;0,019607844;;;;;;;;;;;2733,9104;71,557739;-117,15687;-54,166668;;;;;22,638147;52,020813;;;0,11346;;;;;;;;;;;;;;;;;2;2;;60304;51757;127;130;209;140;8;17;7;1;222;155;;;;;;;;;;;;;;;;;;;;;;;;;;;;;;;;155;;;;;;;;;
201,27615;2,509804;2,5490198;4,0980392;2,7254903;0,15686275;0,33333334;0,13725491;0,019607844;;;;;;;;;;;2782,2068;71,122009;-117,15687;-54,166668;;;;;22,816401;52,020813;;;0,1098;;;;;;;;;;;;;;;;;2;2;;60304;51777;128;130;209;139;8;17;7;1;121;150;;;;;;;;;;;;;;;;;;;;;;;;;;;;;;;;150;;;;;;;;;
201,2851;2,4901962;2,5490198;4,0980392;2,7450981;0,15686275;0,33333334;0,13725491;0,019607844;;;;;;;;;;;2733,9104;71,557739;-117,15687;-54,166668;;;;;22,638147;52,020813;;;0,108336;;;;;;;;;;;;;;;;;2;2;;60304;51797;127;130;209;140;8;17;7;1;206;148;;;;;;;;;;;;;;;;;;;;;;;;;;;;;;;;148;;;;;;;;;
201,29405;2,4901962;2,5490198;4,0980392;2,7254903;0,15686275;0,3137255;0,13725491;0,019607844;;;;;;;;;;;2782,2068;71,122009;-117,15687;-54,656864;;;;;22,638147;52,020813;;;0,1098;;;;;;;;;;;;;;;;;2;2;;60304;51817;127;130;209;139;8;16;7;1;91;150;;;;;;;;;;;;;;;;;;;;;;;;;;;;;;;;150;;;;;;;;;
201,303;2,4901962;2,5490198;4,1176472;2,7254903;0,17647059;0,3137255;0,13725491;0,019607844;;;;;;;;;;;2782,2068;71,122009;-116,17648;-54,656864;;;;;22,638147;52,020813;;;;;;;;;;;;;;;;;;;;2;2;;60304;51837;127;130;210;139;9;16;7;1;160;9;;;;;;;;;;;;;;;;;;;;;;;;;;;;;;;;;;;;;;;;;
201,312;2,4901962;2,5490198;4,0980392;2,7450981;0,17647059;0,3137255;0,13725491;0,019607844;;;;;;;;;;;2733,9104;71,557739;-116,17648;-54,656864;;;;;22,638147;52,020813;;;0,103944;;;;;;;;;;;;;;;;;2;2;;60304;51857;127;130;209;140;9;16;7;1;165;142;;;;;;;;;;;;;;;;;;;;;;;;;;;;;;;;142;;;;;;;;;
201,32095;2,4901962;2,5490198;4,1176472;2,7254903;0,17647059;0,33333334;0,13725491;0,019607844;;;;;;;;;;;2782,2068;71,122009;-116,17648;-54,166668;;;;;22,638147;52,020813;;;0,111264;;;;;;;;;;;;;;;;;2;2;;60304;51877;127;130;210;139;9;17;7;1;216;152;;;;;;;;;;;;;;;;;;;;;;;;;;;;;;;;152;;;;;;;;;
201,3299;2,4901962;2,5490198;4,0980392;2,7254903;0,15686275;0,3137255;0,13725491;0,019607844;;;;;;;;;;;2782,2068;71,122009;-117,15687;-54,656864;;;;;22,638147;52,020813;;;0,11712;;;;;;;;;;;;;;;;;2;2;;60304;51897;127;130;209;139;8;16;7;1;71;160;;;;;;;;;;;;;;;;;;;;;;;;;;;;;;;;160;;;;;;;;;
201,33885;2,4901962;2,5490198;4,1176472;2,7254903;0,15686275;0,3137255;0,13725491;0,019607844;;;;;;;;;;;2782,2068;71,122009;-117,15687;-54,656864;;;;;22,638147;52,020813;;;0,111264;;;;;;;;;;;;;;;;;2;2;;60304;51917;127;130;210;139;8;16;7;1;181;152;;;;;;;;;;;;;;;;;;;;;;;;;;;;;;;;152;;;;;;;;;
201,3478;2,4901962;2,5490198;4,0980392;2,7450981;0,17647059;0,33333334;0,13725491;0,019607844;;;;;;;;;;;2733,9104;71,557739;-116,17648;-54,166668;;;;;22,638147;52,020813;;;;;;;;;;;;;;;;;;;;2;2;;60304;51937;127;130;209;140;9;17;7;1;161;9;;;;;;;;;;;;;;;;;;;;;;;;;;;;;;;;;;;;;;;;;
201,3568;2,4901962;2,5294118;4,1176472;2,7254903;0,17647059;0,33333334;0,13725491;0,019607844;;;;;;;;;;;2782,2068;71,122009;-116,17648;-54,166668;;;;;22,638147;51,620647;;;0,122244;;;;;;;;;;;;;;;;;2;2;;60304;51957;127;129;210;139;9;17;7;1;52;167;;;;;;;;;;;;;;;;;;;;;;;;;;;;;;;;167;;;;;;;;;
201,3653;2,509804;2,5490198;4,1176472;2,7254903;0,17647059;0,33333334;0,13725491;0,019607844;;;;;;;;;;;2782,2068;71,122009;-116,17648;-54,166668;;;;;22,816401;52,020813;;;;;;;;;;;;;;;;;;;;2;2;;60304;51976;128;130;210;139;9;17;7;1;11;0;;;;;;;;;;;;;;;;;;;;;;;;;;;;;;;;;;;;;;;;;
201,3738;2,4901962;2,5490198;4,0980392;2,7450981;0,15686275;0,33333334;0,13725491;0,019607844;;;;;;;;;;;2733,9104;71,557739;-117,15687;-54,166668;;;;;22,638147;52,020813;;0,92964;;;;;;;;;;;;;;;;;;2;2;;60304;51995;127;130;209;140;8;17;7;1;176;246;;;;;;;;;;;;;;;;;;;;;;;;;;;;;;;1270;;;;;;;;;;
201,3823;2,4901962;2,5490198;4,0980392;2,7254903;0,17647059;0,33333334;0,13725491;0,019607844;;;;;;;;;;;2782,2068;71,122009;-116,17648;-54,166668;;;;;22,638147;52,020813;;;;;;;;;;;;;;;;;;;;2;2;;60304;52014;127;130;209;139;9;17;7;1;11;5;;;;;;;;;;;;;;;;;;;;;;;;;;;;;;;;;;;;;;;;;
201,3913;2,4901962;2,5490198;4,0980392;2,7254903;0,15686275;0,33333334;0,13725491;0,019607844;;;;;;;;;;;2782,2068;71,122009;-117,15687;-54,166668;;;;;22,638147;52,020813;;;;;;;;;;;;;;;;;;;;2;2;;60304;52034;127;130;209;139;8;17;7;1;10;77;;;;;;;;;;;;;;;;;;;;;;;;;;;;;;;;;;;;;;;;;
201,40025;2,4901962;2,5294118;4,0980392;2,7254903;0,15686275;0,33333334;0,13725491;0,019607844;;;;;;;;;;;2782,2068;71,122009;-117,15687;-54,166668;;;;;22,638147;51,620647;;;;;;;;;;;;;;;;;;;;2;2;;60304;52054;127;129;209;139;8;17;7;1;11;4;;;;;;;;;;;;;;;;;;;;;;;;;;;;;;;;;;;;;;;;;
201,4092;2,4901962;2,5294118;4,1176472;2,7254903;0,15686275;0,3137255;0,13725491;0,019607844;;;;;;;;;;;2782,2068;71,122009;-117,15687;-54,656864;;;;;22,638147;51,620647;;;;;;;;;;;;;;;;;;;;2;2;;60304;52074;127;129;210;139;8;16;7;1;11;5;;;;;;;;;;;;;;;;;;;;;;;;;;;;;;;;;;;;;;;;;
201,41815;2,4901962;2,5294118;4,0980392;2,7254903;0,15686275;0,3137255;0,13725491;0,019607844;;;;;;;;;;;2782,2068;71,122009;-117,15687;-54,656864;;;;;22,638147;51,620647;;;;;;;;;;;;;;;;;;;;2;2;;60304;52094;127;129;209;139;8;16;7;1;5;4;;;;;;;;;;;;;;;;;;;;;;;;;;;;;;;;;;;;;;;;;
201,42665;2,4901962;2,5490198;4,0980392;2,7254903;0,15686275;0,33333334;0,13725491;0,019607844;;;;;;;;;;;2782,2068;71,122009;-117,15687;-54,166668;;;;;22,638147;52,020813;-0,30890399;;;;;;;;;;;;;;;;;;;2;2;;60304;52113;127;130;209;139;8;17;7;1;49;90;;;;;;;;;;;;;;;;;;;;;;;;;;;;;;-422;;;;;;;;;;;
201,4356;2,4901962;2,5490198;4,0980392;2,7254903;0,15686275;0,33333334;0,13725491;0,019607844;;;;;;;;;;;2782,2068;71,122009;-117,15687;-54,166668;;;;;22,638147;52,020813;;;;;;;;;;;;;;;;;;;;2;2;;60304;52133;127;130;209;139;8;17;7;1;79;41;;;;;;;;;;;;;;;;;;;;;;;;;;;;;;;;;;;;;;;;;
201,4446;2,4901962;2,5490198;4,1176472;2,7450981;0,17647059;0,33333334;0,13725491;0,019607844;;;;;;;;;;;2733,9104;71,557739;-116,17648;-54,166668;;;;;22,638147;52,020813;-0,30817199;;;;;;;;;;;;;;;;;;;2;2;;60304;52153;127;130;210;140;9;17;7;1;49;91;;;;;;;;;;;;;;;;;;;;;;;;;;;;;;-421;;;;;;;;;;;
201,45355;2,4901962;2,5490198;4,1176472;2,7254903;0,15686275;0,33333334;0,13725491;0,019607844;;;;;;;;;;;2782,2068;71,122009;-117,15687;-54,166668;;;;;22,638147;52,020813;-0,31768799;;;;;;;;;;;;;;;;;;;2;2;;60304;52173;127;130;210;139;8;17;7;1;63;78;;;;;;;;;;;;;;;;;;;;;;;;;;;;;;-434;;;;;;;;;;;
201,4625;2,4901962;2,5490198;4,0980392;2,7450981;0,15686275;0,33333334;0,13725491;0,019607844;;;;;;;;;;;2733,9104;71,557739;-117,15687;-54,166668;;;;;22,638147;52,020813;-0,305244;;;;;;;;;;;;;;;;;;;2;2;;60304;52193;127;130;209;140;8;17;7;1;122;95;;;;;;;;;;;;;;;;;;;;;;;;;;;;;;-417;;;;;;;;;;;
201,47145;2,4901962;2,5490198;4,0980392;2,7450981;0,15686275;0,3137255;0,13725491;0,019607844;;;;;;;;;;;2733,9104;71,557739;-117,15687;-54,656864;;;;;22,638147;52,020813;-0,30377999;;;;;;;;;;;;;;;;;;;2;2;;60304;52213;127;130;209;140;8;16;7;1;224;97;;;;;;;;;;;;;;;;;;;;;;;;;;;;;;-415;;;;;;;;;;;
201,4804;2,4901962;2,5490198;4,0980392;2,7254903;0,15686275;0,33333334;0,13725491;0,019607844;;;;;;;;;;;2782,2068;71,122009;-117,15687;-54,166668;;;;;22,638147;52,020813;;;;;;;;;;;;;;;;;;;;2;2;;60304;52233;127;130;209;139;8;17;7;1;90;41;;;;;;;;;;;;;;;;;;;;;;;;;;;;;;;;;;;;;;;;;
201,4894;2,509804;2,5490198;4,0980392;2,7450981;0,15686275;0,33333334;0,13725491;0,019607844;;;;;;;;;;;2733,9104;71,557739;-117,15687;-54,166668;;;;;22,816401;52,020813;-0,309636;;;;;;;;;;;;;;;;;;;2;2;;60304;52253;128;130;209;140;8;17;7;1;160;89;;;;;;;;;;;;;;;;;;;;;;;;;;;;;;-423;;;;;;;;;;;
201,4979;2,4901962;2,5490198;4,1176472;2,7254903;0,15686275;0,33333334;0,13725491;0,019607844;;;;;;;;;;;2782,2068;71,122009;-117,15687;-54,166668;;;;;22,638147;52,020813;;;;;;;;;;;;;;;;;;;;2;2;;60304;52272;127;130;210;139;8;17;7;1;11;254;;;;;;;;;;;;;;;;;;;;;;;;;;;;;2;;;;;;;;;;;;
201,5064;2,4901962;2,5490198;4,0980392;2,7254903;0,15686275;0,33333334;0,13725491;0,019607844;;;;;;;;;;;2782,2068;71,122009;-117,15687;-54,166668;;;;;22,638147;52,020813;;;;;;;;;;;;;;;;;;;;2;2;;60304;52291;127;130;209;139;8;17;7;1;214;3;;;;;;;;;;;;;;;;;;;;;;;;;;;;160;;;;;;;;;;;;;
201,5149;2,4901962;2,5490198;4,1176472;2,7254903;0,17647059;0,3137255;0,13725491;0,019607844;;;;;;;;;;;2782,2068;71,122009;-116,17648;-54,656864;;;;;22,638147;52,020813;;;;;;;;;;;;;;;;;;;;2;2;;60304;52310;127;130;210;139;9;16;7;1;11;160;;;;;;;;;;;;;;;;;;;;;;;;;;;;;;;;;;;;;;;;;
201,5239;2,4901962;2,5294118;4,0980392;2,7254903;0,17647059;0,33333334;0,13725491;0,019607844;;;;;;;;;;;2782,2068;71,122009;-116,17648;-54,166668;;;;;22,638147;51,620647;;;;;;;;;;;;;;;;;;;;2;2;;60304;52330;127;129;209;139;9;17;7;1;4;160;;;;;;;;;;;;;;;;;;;;;;;;;;;;;;;;;;;;;;;;;
201,53285;2,4901962;2,5490198;4,1176472;2,7450981;0,15686275;0,3137255;0,13725491;0,019607844;;;;;;;;;;;2733,9104;71,557739;-117,15687;-54,656864;;;;;22,638147;52,020813;;;;;;;;;;;;;;;;;;;;2;2;;60304;52350;127;130;210;140;8;16;7;1;11;160;;;;;;;;;;;;;;;;;;;;;;;;;;;;;;;;;;;;;;;;;
201,5418;2,4901962;2,5490198;4,0980392;2,7254903;0,15686275;0,33333334;0,13725491;0,019607844;;;;;;;;;;;2782,2068;71,122009;-117,15687;-54,166668;;;;;22,638147;52,020813;;;;;;;;;;;;;;;;;;;;2;2;;60304;52370;127;130;209;139;8;17;7;1;15;160;;;;;;;;;;;;;;;;;;;;;;;;;;;;;;;;;;;;;;;;;
201,55075;2,4901962;2,5490198;4,1176472;2,7450981;0,17647059;0,3137255;0,13725491;0,019607844;;;;;;;;;;;2733,9104;71,557739;-116,17648;-54,656864;;;;;22,638147;52,020813;;;;;;;;;;;;;;;;;;;;2;2;;60304;52390;127;130;210;140;9;16;7;1;11;160;;;;;;;;;;;;;;;;;;;;;;;;;;;;;;;;;;;;;;;;;
201,55975;2,4901962;2,5490198;4,0980392;2,7254903;0,15686275;0,3137255;0,13725491;0,019607844;112,07843;113,80991;113,34894;113,44061;113,47998;100,94156;115,01138;113,78336;112,86844;112,24252;2782,2068;71,122009;-117,15687;-54,656864;;;;;22,638147;52,020813;;;;;;;;;;479,56378;457,15652;462,99991;461,83072;461,32971;658,69727;442,327;457,49026;469,18433;477,38574;2;2;;60304;52410;127;130;209;139;8;16;7;1;161;160;2;2;;41121;2999;2865;2900;2893;2890;4050;2776;2867;2937;2986;1313;1257;;;;;;;;;;;;;;;;;;;;;;;;;
201,5687;2,509804;2,5490198;4,0980392;2,7254903;0,17647059;0,33333334;0,13725491;0,019607844;;;;;;;;;;;2782,2068;71,122009;-116,17648;-54,166668;;;;;22,816401;52,020813;;;;;;;;;;;;;;;;;;;;2;2;;60304;52430;128;130;209;139;9;17;7;1;11;160;;;;;;;;;;;;;;;;;;;;;;;;;;;;;;;;;;;;;;;;;
201,57765;2,4901962;2,5490198;4,0980392;2,7450981;0,17647059;0,33333334;0,13725491;0,019607844;;;;;;;;;;;2733,9104;71,557739;-116,17648;-54,166668;;;;;22,638147;52,020813;;;;;;;;;;;;;;;;;;;;2;2;;60304;52450;127;130;209;140;9;17;7;1;10;160;;;;;;;;;;;;;;;;;;;;;;;;;;;;;;;;;;;;;;;;;
201,5866;2,4901962;2,5490198;4,1176472;2,7254903;0,17647059;0,3137255;0,13725491;0,019607844;;;;;;;;;;;2782,2068;71,122009;-116,17648;-54,656864;;;;;22,638147;52,020813;;;;;;;;;;;;;;;;;;;;2;2;;60304;52470;127;130;210;139;9;16;7;1;11;160;;;;;;;;;;;;;;;;;;;;;;;;;;;;;;;;;;;;;;;;;
201,59555;2,4901962;2,5490198;4,1176472;2,7450981;0,17647059;0,33333334;0,13725491;0,019607844;;;;;;;;;;;2733,9104;71,557739;-116,17648;-54,166668;;;;;22,638147;52,020813;;;;;;;;;;;;;;;;;;;;2;2;;60304;52490;127;130;210;140;9;17;7;1;11;160;;;;;;;;;;;;;;;;;;;;;;;;;;;;;;;;;;;;;;;;;
201,60455;2,4901962;2,5490198;4,0980392;2,7254903;0,15686275;0,33333334;0,13725491;0,019607844;;;;;;;;;;;2782,2068;71,122009;-117,15687;-54,166668;;;;;22,638147;52,020813;;;;;;;;;;;;;;;;;;;;2;2;;60304;52510;127;130;209;139;8;17;7;1;6;160;;;;;;;;;;;;;;;;;;;;;;;;;;;;;;;;;;;;;;;;;
201,6135;2,4901962;2,5490198;4,1176472;2,7254903;0,17647059;0,33333334;0,13725491;0,019607844;;;;;;;;;;;2782,2068;71,122009;-116,17648;-54,166668;;;;;22,638147;52,020813;;;;;;;;;;;;;;;;;;;;2;2;;60304;52530;127;130;210;139;9;17;7;1;11;160;;;;;;;;;;;;;;;;;;;;;;;;;;;;;;;;;;;;;;;;;
201,62245;2,4901962;2,5490198;4,0980392;2,7254903;0,15686275;0,33333334;0,13725491;0,019607844;;;;;;;;;;;2782,2068;71,122009;-117,15687;-54,166668;;;;;22,638147;52,020813;;;;;;;;;;;;;;;;;;;;2;2;;60304;52550;127;130;209;139;8;17;7;1;11;160;;;;;;;;;;;;;;;;;;;;;;;;;;;;;;;;;;;;;;;;;
201,63095;2,4901962;2,5490198;4,0980392;2,7450981;0,15686275;0,33333334;0,13725491;0,019607844;;;;;;;;;;;2733,9104;71,557739;-117,15687;-54,166668;;;;;22,638147;52,020813;;;;;;;;;-0,20342;;;;;;;;;;;2;2;;60304;52569;127;130;209;140;8;17;7;1;46;83;;;;;;;;;;;;;;;;;;;;;;;;;;;;;;;;;;;;;;-1453;;;
201,6399;2,4901962;2,5490198;4,0980392;2,7254903;0,15686275;0,3137255;0,13725491;0,019607844;;;;;;;;;;;2782,2068;71,122009;-117,15687;-54,656864;;;;;22,638147;52,020813;;;;;;;;;-0,20342;;;;;;;;;;;2;2;;60304;52589;127;130;209;139;8;16;7;1;50;83;;;;;;;;;;;;;;;;;;;;;;;;;;;;;;;;;;;;;;-1453;;;
201,6489;2,509804;2,5490198;4,1176472;2,7254903;0,17647059;0,33333334;0,13725491;0,019607844;;;;;;;;;;;2782,2068;71,122009;-116,17648;-54,166668;;;;;22,816401;52,020813;;;;;;;;;-0,21000001;;;;;;;;;;;2;2;;60304;52609;128;130;210;139;9;17;7;1;116;36;;;;;;;;;;;;;;;;;;;;;;;;;;;;;;;;;;;;;;-1500;;;
201,6574;2,4901962;2,5490198;4,1176472;2,7450981;0,15686275;0,33333334;0,13725491;0,019607844;;;;;;;;;;;2733,9104;71,557739;-117,15687;-54,166668;;;;;22,638147;52,020813;;;;;;;;;;;;;;;;;;;;2;2;;60304;52628;127;130;210;140;8;17;7;1;11;250;;;;;;;;;;;;;;;;;;;;;;;;;;;;;;;;;;;;;;;;;
201,66635;2,4901962;2,5490198;4,0980392;2,7254903;0,15686275;0,3137255;0,13725491;0,019607844;;;;;;;;;;;2782,2068;71,122009;-117,15687;-54,656864;;;;;22,638147;52,020813;;;;;;;;;;;;;;;;;;;;2;2;;60304;52648;127;130;209;139;8;16;7;1;11;0;;;;;;;;;;;;;;;;;;;;;;;;;;;;;;;;;;;;;;;;;
201,6753;2,4901962;2,5490198;4,1176472;2,7254903;0,17647059;0,3137255;0,13725491;0,019607844;;;;;;;;;;;2782,2068;71,122009;-116,17648;-54,656864;;;;;22,638147;52,020813;;;;;;;;;;;;;;;;;;;;2;2;;60304;52668;127;130;210;139;9;16;7;1;3;250;;;;;;;;;;;;;;;;;;;;;;;;;;;;;;;;;;;;;;;;;
201,68335;2,4901962;2,5490198;4,1176472;2,7254903;0,17647059;0,3137255;0,13725491;0,019607844;;;;;;;;;;;2782,2068;71,122009;-116,17648;-54,656864;;;;;22,638147;52,020813;;;;;;;;;;;;;;;;;;;;2;2;;60304;52686;127;130;210;139;9;16;7;1;11;239;;;;;;;;;;;;;;;;;;;;;;;;;;;;;;;;;;;;;;;;;
201,69235;2,4901962;2,5490198;4,0980392;2,7254903;0,17647059;0,33333334;0,13725491;0,019607844;;;;;;;;;;;2782,2068;71,122009;-116,17648;-54,166668;;;;;22,638147;52,020813;;;;;;;;;;;;;;;;;;;;2;2;;60304;52706;127;130;209;139;9;17;7;1;11;239;;;;;;;;;;;;;;;;;;;;;;;;;;;;;;;;;;;;;;;;;
201,7004;2,4901962;2,5490198;4,0980392;2,7254903;0,15686275;0,3137255;0,13725491;0,019607844;;;;;;;;;;;2782,2068;71,122009;-117,15687;-54,656864;;;;;22,638147;52,020813;;;;;;;;;;;;;;;;;;;;2;2;;60304;52724;127;130;209;139;8;16;7;1;11;5;;;;;;;;;;;;;;;;;;;;;;;;;;;;;;;;;;;;;;;;;
201,70935;2,4901962;2,5490198;4,1176472;2,7450981;0,15686275;0,33333334;0,13725491;0,019607844;;;;;;;;;;;2733,9104;71,557739;-117,15687;-54,166668;;;;;22,638147;52,020813;;;;;;;;;;;;;;;;;;;;2;2;;60304;52744;127;130;210;140;8;17;7;1;5;0;;;;;;;;;;;;;;;;;;;;;;;;;;;;;;;;;;;;;;;;;
201,7183;2,4901962;2,5490198;4,0980392;2,7450981;0,15686275;0,33333334;0,13725491;0,019607844;;;;;;;;;;;2733,9104;71,557739;-117,15687;-54,166668;;;;;22,638147;52,020813;;;;;;;;;;;;;;;;;;;;2;2;;60304;52764;127;130;209;140;8;17;7;1;11;5;;;;;;;;;;;;;;;;;;;;;;;;;;;;;;;;;;;;;;;;;
201,72725;2,4901962;2,5490198;4,1176472;2,7254903;0,15686275;0,33333334;0,13725491;0,019607844;;;;;;;;;;;2782,2068;71,122009;-117,15687;-54,166668;;;;;22,638147;52,020813;;;;;;;;;;;;;;;;;;;;2;2;;60304;52784;127;130;210;139;8;17;7;1;11;5;;;;;;;;;;;;;;;;;;;;;;;;;;;;;;;;;;;;;;;;;
201,73625;2,4901962;2,5490198;4,1176472;2,7254903;0,15686275;0,3137255;0,13725491;0,019607844;;;;;;;;;;;2782,2068;71,122009;-117,15687;-54,656864;;;;;22,638147;52,020813;;;;;;;;;;;;;;;;;;;;2;2;;60304;52804;127;130;210;139;8;16;7;1;11;5;;;;;;;;;;;;;;;;;;;;;;;;;;;;;;;;;;;;;;;;;
201,7452;2,509804;2,5490198;4,0980392;2,7450981;0,15686275;0,33333334;0,13725491;0,019607844;;;;;;;;;;;2733,9104;71,557739;-117,15687;-54,166668;;;;;22,816401;52,020813;;;;;;;;;;;;;;;;;;;;2;2;;60304;52824;128;130;209;140;8;17;7;1;4;5;;;;;;;;;;;;;;;;;;;;;;;;;;;;;;;;;;;;;;;;;
201,75415;2,4901962;2,5294118;4,0980392;2,7254903;0,17647059;0,33333334;0,13725491;0,019607844;;;;;;;;;;;2782,2068;71,122009;-116,17648;-54,166668;;;;;22,638147;51,620647;;;;;;;;;;;;;;;;;;;;2;2;;60304;52844;127;129;209;139;9;17;7;1;11;0;;;;;;;;;;;;;;;;;;;;;;;;;;;;;;;;;;;;;;;;;
201,7631;2,4901962;2,5294118;4,0980392;2,7254903;0,15686275;0,33333334;0,13725491;0,019607844;;;;;;;;;;;2782,2068;71,122009;-117,15687;-54,166668;;;;;22,638147;51,620647;;;;;;;;;;;;;;;;;;;;2;2;;60304;52864;127;129;209;139;8;17;7;1;15;5;;;;;;;;;;;;;;;;;;;;;;;;;;;;;;;;;;;;;;;;;
201,7721;2,4901962;2,5490198;4,1176472;2,7254903;0,15686275;0,33333334;0,13725491;0,019607844;;;;;;;;;;;2782,2068;71,122009;-117,15687;-54,166668;;;;;22,638147;52,020813;;;;;;;;;;;;;;;;;;;;2;2;;60304;52884;127;130;210;139;8;17;7;1;11;5;;;;;;;;;;;;;;;;;;;;;;;;;;;;;;;;;;;;;;;;;
201,78105;2,4901962;2,5490198;4,1176472;2,7254903;0,17647059;0,33333334;0,13725491;0,019607844;112,16669;113,73044;113,40128;113,54572;113,42752;100,90561;115,02515;113,78336;112,86844;112,26785;2782,2068;71,122009;-116,17648;-54,166668;;;;;22,638147;52,020813;;;;;;;;;;478,39087;458,15781;462,33179;460,49481;461,99774;659,39069;442,16061;457,49026;469,18433;477,05072;2;2;;60304;52904;127;130;210;139;9;17;7;1;161;5;2;2;;41121;2992;2871;2896;2885;2894;4054;2775;2867;2937;2984;1351;1105;;;;;;;;;;;;;;;;;;;;;;;;;
201,79;2,4901962;2,5490198;4,1176472;2,7450981;0,15686275;0,33333334;0,13725491;0,019607844;;;;;;;;;;;2733,9104;71,557739;-117,15687;-54,166668;;;;;22,638147;52,020813;;;;;;;;;;;;;;;;;;;;2;2;;60304;52924;127;130;210;140;8;17;7;1;11;5;;;;;;;;;;;;;;;;;;;;;;;;;;;;;;;;;;;;;;;;;
201,79895;2,4901962;2,5294118;4,1176472;2,7254903;0,17647059;0,33333334;0,13725491;0,019607844;;;;;;;;;;;2782,2068;71,122009;-116,17648;-54,166668;;;;;22,638147;51,620647;;;;;;;;;;;;;;;;;;;;2;2;;60304;52944;127;129;210;139;9;17;7;1;10;0;;;;;;;;;;;;;;;;;;;;;;;;;;;;;;;;;;;;;;;;;
201,8079;2,4901962;2,5294118;4,0980392;2,7254903;0,17647059;0,33333334;0,13725491;0,019607844;;;;;;;;;;;2782,2068;71,122009;-116,17648;-54,166668;;;;;22,638147;51,620647;;;;;;;;;;;;;;;;;;;;2;2;;60304;52964;127;129;209;139;9;17;7;1;11;5;;;;;;;;;;;;;;;;;;;;;;;;;;;;;;;;;;;;;;;;;
201,8169;2,4901962;2,5490198;4,0980392;2,7450981;0,17647059;0,33333334;0,13725491;0,019607844;;;;;;;;;;;2733,9104;71,557739;-116,17648;-54,166668;;;;;22,638147;52,020813;;;;;;;;;;;;;;;;;;;;2;2;;60304;52984;127;130;209;140;9;17;7;1;11;5;;;;;;;;;;;;;;;;;;;;;;;;;;;;;;;;;;;;;;;;;
201,8254;2,509804;2,5490198;4,1176472;2,7254903;0,17647059;0,33333334;0,13725491;0,019607844;;;;;;;;;;;2782,2068;71,122009;-116,17648;-54,166668;;;;;22,816401;52,020813;;;;;;1,26;;;;;;;;;;;;;;2;2;;60304;53003;128;130;210;139;9;17;7;1;1;18;;;;;;;;;;;;;;;;;;;;;;;;;;;;;;;;;;;18;;;;;;
201,8339;2,4901962;2,5490198;4,0980392;2,7254903;0,15686275;0,33333334;0,13725491;0,019607844;;;;;;;;;;;2782,2068;71,122009;-117,15687;-54,166668;;;;;22,638147;52,020813;;;;;;;;;;;;;;;;;;;;2;2;;60304;53022;127;130;209;139;8;17;7;1;10;0;;;;;;;;;;;;;;;;;;;;;;;;;;;;;;;;;;;;;;;;;
201,84285;2,4901962;2,5490198;4,0980392;2,7450981;0,15686275;0,3137255;0,13725491;0,019607844;;;;;;;;;;;2733,9104;71,557739;-117,15687;-54,656864;;;;;22,638147;52,020813;;;;;;;;;;;;;;;;;;;;2;2;;60304;53042;127;130;209;140;8;16;7;1;11;1;;;;;;;;;;;;;;;;;;;;;;;;;;;;;;;;;;;;;;;;;
201,8518;2,4901962;2,5490198;4,1176472;2,7254903;0,15686275;0,3137255;0,13725491;0,019607844;;;;;;;;;;;2782,2068;71,122009;-117,15687;-54,656864;;;;;22,638147;52,020813;;;;;;;;;;;;;;;;;;;;2;2;;60304;53062;127;130;210;139;8;16;7;1;11;0;;;;;;;;;;;;;;;;;;;;;;;;;;;;;;;;;;;;;;;;;
201,8608;2,4901962;2,5490198;4,0980392;2,7450981;0,17647059;0,33333334;0,13725491;0,019607844;;;;;;;;;;;2733,9104;71,557739;-116,17648;-54,166668;;;;;22,638147;52,020813;;;;;;;;;;;;;;;;;;;;2;2;;60304;53082;127;130;209;140;9;17;7;1;5;0;;;;;;;;;;;;;;;;;;;;;;;;;;;;;;;;;;;;;;;;;
201,86975;2,509804;2,5490198;4,0980392;2,7450981;0,15686275;0,33333334;0,13725491;0,019607844;;;;;;;;;;;2733,9104;71,557739;-117,15687;-54,166668;;;;;22,816401;52,020813;;;;;;;;;;;;;;;;;;;;2;2;;60304;53102;128;130;209;140;8;17;7;1;11;0;;;;;;;;;;;;;;;;;;;;;;;;;;;;;;;;;;;;;;;;;
201,8778;2,4901962;2,5490198;4,0980392;2,7254903;0,15686275;0,33333334;0,13725491;0,019607844;;;;;;;;;;;2782,2068;71,122009;-117,15687;-54,166668;;;;;22,638147;52,020813;;;;;;;;;;;;;;;;;;;;2;2;;60304;53120;127;130;209;139;8;17;7;1;11;0;;;;;;;;;;;;;;;;;;;;;;;;;;;;;;;;;;;;;;;;;
201,88675;2,509804;2,5294118;4,1176472;2,7450981;0,15686275;0,3137255;0,13725491;0,019607844;;;;;;;;;;;2733,9104;71,557739;-117,15687;-54,656864;;;;;22,816401;51,620647;;;;;;;;;;;;;;;;;;;;2;2;;60304;53140;128;129;210;140;8;16;7;1;11;20;;;;;;;;;;;;;;;;;;;;;;;;;;;;;;;;;;;;;;;;;
201,8957;2,4901962;2,5490198;4,1176472;2,7450981;0,15686275;0,33333334;0,13725491;0,019607844;;;;;;;;;;;2733,9104;71,557739;-117,15687;-54,166668;;;;;22,638147;52,020813;;;;;;;;;;;;;;;;;;;;2;2;;60304;53160;127;130;210;140;8;17;7;1;5;0;;;;;;;;;;;;;;;;;;;;;;;;;;;;;;;;;;;;;;;;;
201,9047;2,4901962;2,5490198;4,0980392;2,7254903;0,17647059;0,33333334;0,13725491;0,019607844;;;;;;;;;;;2782,2068;71,122009;-116,17648;-54,166668;;;;;22,638147;52,020813;;;;;;;;;;;;;;;;;;;;2;2;;60304;53180;127;130;209;139;9;17;7;1;11;0;;;;;;;;;;;;;;;;;;;;;;;;;;;;;;;;;;;;;;;;;
201,91365;2,4901962;2,5490198;4,0980392;2,7254903;0,17647059;0,33333334;0,13725491;0,019607844;;;;;;;;;;;2782,2068;71,122009;-116,17648;-54,166668;;;;;22,638147;52,020813;;;;;;;;;;;;;;;;;;;;2;2;;60304;53200;127;130;209;139;9;17;7;1;11;0;;;;;;;;;;;;;;;;;;;;;;;;;;;;;;;;;;;;;;;;;
201,9226;2,4901962;2,5490198;4,0980392;2,7450981;0,17647059;0,33333334;0,13725491;0,019607844;;;;;;;;;;;2733,9104;71,557739;-116,17648;-54,166668;;;;;22,638147;52,020813;;;;;;;;;;;;;;;;;;;;2;2;;60304;53220;127;130;209;140;9;17;7;1;11;0;;;;;;;;;;;;;;;;;;;;;;;;;;;;;;;;;;;;;;;;;
201,93155;2,4901962;2,5294118;4,0980392;2,7254903;0,17647059;0,33333334;0,13725491;0,019607844;;;;;;;;;;;2782,2068;71,122009;-116,17648;-54,166668;;;;;22,638147;51,620647;;;;;;;;;;;;;;;;;;;;2;2;;60304;53240;127;129;209;139;9;17;7;1;3;20;;;;;;;;;;;;;;;;;;;;;;;;;;;;;;;;;;;;;;;;;
201,9401;2,4901962;2,5490198;4,0980392;2,7450981;0,15686275;0,33333334;0,13725491;0,019607844;;;;;;;;;;;2733,9104;71,557739;-117,15687;-54,166668;;;;;22,638147;52,020813;;;;;;;;;;;;;;;;;;;;2;2;;60304;53259;127;130;209;140;8;17;7;1;118;229;;;;;;;;;;;;;;;;;;;;;;;;;;;;;;;;;;;;;;;;;
201,94905;2,4901962;2,5490198;4,0980392;2,7254903;0,15686275;0,33333334;0,13725491;0,019607844;;;;;;;;;;;2782,2068;71,122009;-117,15687;-54,166668;;;;;22,638147;52,020813;;;;-2,6600001;;;;;;;;;;;;;;;;2;2;;60304;53279;127;130;209;139;8;17;7;1;219;218;;;;;;;;;;;;;;;;;;;;;;;;;;;;;;;;;-38;;;;;;;;
201,958;2,4901962;2,5490198;4,0980392;2,7450981;0,15686275;0,33333334;0,13725491;0,019607844;;;;;;;;;;;2733,9104;71,557739;-117,15687;-54,166668;;;;;22,638147;52,020813;;;;-2,45;;;;;;;;;;;;;;;;2;2;;60304;53299;127;130;209;140;8;17;7;1;84;221;;;;;;;;;;;;;;;;;;;;;;;;;;;;;;;;;-35;;;;;;;;
201,9665;2,4901962;2,5490198;4,0980392;2,7450981;0,15686275;0,33333334;0,13725491;0,019607844;;;;;;;;;;;2733,9104;71,557739;-117,15687;-54,166668;;;;;22,638147;52,020813;;;;;;;;;;;;;;;;;;;;2;2;;60304;53318;127;130;209;140;8;17;7;1;5;255;;;;;;;;;;;;;;;;;;;;;;;;;;;;;;;;;;;;;;;;;
201,97545;2,4901962;2,5490198;4,0980392;2,7450981;0,15686275;0,33333334;0,13725491;0,019607844;;;;;;;;;;;2733,9104;71,557739;-117,15687;-54,166668;;;;;22,638147;52,020813;;;;;;;;;;;;;;;;;;;;2;2;;60304;53338;127;130;209;140;8;17;7;1;11;140;;;;;;;;;;;;;;;;;;;;;;;;;;;;;;;;;;;;;;;;;
201,98445;2,4901962;2,5490198;4,0980392;2,7254903;0,15686275;0,3137255;0,13725491;0,019607844;;;;;;;;;;;2782,2068;71,122009;-117,15687;-54,656864;;;;;22,638147;52,020813;;;;;;;;;;;;;;;;;;;;2;2;;60304;53358;127;130;209;139;8;16;7;1;15;255;;;;;;;;;;;;;;;;;;;;;;;;;;;;;;;;;;;;;;;;;
201,9934;2,4901962;2,5490198;4,1176472;2,7254903;0,15686275;0,33333334;0,13725491;0,019607844;;;;;;;;;;;2782,2068;71,122009;-117,15687;-54,166668;;;;;22,638147;52,020813;;;;;;;;;;;;;;;;;;;;2;2;;60304;53378;127;130;210;139;8;17;7;1;11;255;;;;;;;;;;;;;;;;;;;;;;;;;;;;;;;;;;;;;;;;;
202,00235;2,4901962;2,5490198;4,0980392;2,7450981;0,15686275;0,3137255;0,13725491;0,019607844;112,15405;113,87625;113,30969;113,44061;113,44061;100,95956;115,01138;113,78336;112,82974;112,24252;2733,9104;71,557739;-117,15687;-54,656864;;;;;22,638147;52,020813;;;;;;;;;;478,55841;456,3223;463,5011;461,83072;461,83072;658,35052;442,327;457,49026;469,68607;477,38574;2;2;;60304;53398;127;130;209;140;8;16;7;1;161;255;2;2;;41121;2993;2860;2903;2893;2893;4048;2776;2867;2940;2986;1644;1416;;;;;;;;;;;;;;;;;;;;;;;;;
202,01085;2,4901962;2,5490198;4,0980392;2,7450981;0,15686275;0,33333334;0,13725491;0,019607844;;;;;;;;;;;2733,9104;71,557739;-117,15687;-54,166668;;;;;22,638147;52,020813;;;0,10614;;;;;;;;;;;;;;;;;2;2;;60304;53417;127;130;209;140;8;17;7;1;168;145;;;;;;;;;;;;;;;;;;;;;;;;;;;;;;;;145;;;;;;;;;
202,0198;2,4901962;2,5294118;4,0980392;2,7450981;0,15686275;0,33333334;0,13725491;0,019607844;;;;;;;;;;;2733,9104;71,557739;-117,15687;-54,166668;;;;;22,638147;51,620647;;;;;;;;;;;;;;;;;;;;2;2;;60304;53437;127;129;209;140;8;17;7;1;214;9;;;;;;;;;;;;;;;;;;;;;;;;;;;;;;;;;;;;;;;;;
202,0288;2,509804;2,5490198;4,1176472;2,7254903;0,15686275;0,3137255;0,13725491;0,019607844;;;;;;;;;;;2782,2068;71,122009;-117,15687;-54,656864;;;;;22,816401;52,020813;;;0,11712;;;;;;;;;;;;;;;;;2;2;;60304;53457;128;130;210;139;8;16;7;1;75;160;;;;;;;;;;;;;;;;;;;;;;;;;;;;;;;;160;;;;;;;;;
202,03775;2,4901962;2,5490198;4,1176472;2,7254903;0,17647059;0,3137255;0,13725491;0,019607844;;;;;;;;;;;2782,2068;71,122009;-116,17648;-54,656864;;;;;22,638147;52,020813;;;0,109068;;;;;;;;;;;;;;;;;2;2;;60304;53477;127;130;210;139;9;16;7;1;186;149;;;;;;;;;;;;;;;;;;;;;;;;;;;;;;;;149;;;;;;;;;
202,0467;2,4901962;2,5490198;4,0980392;2,7450981;0,15686275;0,3137255;0,13725491;0,019607844;;;;;;;;;;;2733,9104;71,557739;-117,15687;-54,656864;;;;;22,638147;52,020813;;;0,13176;;;;;;;;;;;;;;;;;2;2;;60304;53497;127;130;209;140;8;16;7;1;140;180;;;;;;;;;;;;;;;;;;;;;;;;;;;;;;;;180;;;;;;;;;
202,05565;2,4901962;2,5490198;4,1176472;2,7254903;0,17647059;0,3137255;0,13725491;0,019607844;;;;;;;;;;;2782,2068;71,122009;-116,17648;-54,656864;;;;;22,638147;52,020813;;;0,116388;;;;;;;;;;;;;;;;;2;2;;60304;53517;127;130;210;139;9;16;7;1;54;159;;;;;;;;;;;;;;;;;;;;;;;;;;;;;;;;159;;;;;;;;;
202,0646;2,4901962;2,5294118;4,0980392;2,7254903;0,15686275;0,33333334;0,13725491;0,019607844;;;;;;;;;;;2782,2068;71,122009;-117,15687;-54,166668;;;;;22,638147;51,620647;;;;;;;;;;;;;;;;;;;;2;2;;60304;53537;127;129;209;139;8;17;7;1;73;9;;;;;;;;;;;;;;;;;;;;;;;;;;;;;;;;;;;;;;;;;
202,0736;2,4901962;2,5490198;4,0980392;2,7254903;0,17647059;0,33333334;0,13725491;0,019607844;;;;;;;;;;;2782,2068;71,122009;-116,17648;-54,166668;;;;;22,638147;52,020813;;;0,109068;;;;;;;;;;;;;;;;;2;2;;60304;53557;127;130;209;139;9;17;7;1;43;149;;;;;;;;;;;;;;;;;;;;;;;;;;;;;;;;149;;;;;;;;;
202,0821;2,4901962;2,5490198;4,1176472;2,7254903;0,17647059;0,33333334;0,13725491;0,019607844;;;;;;;;;;;2782,2068;71,122009;-116,17648;-54,166668;;;;;22,638147;52,020813;;;;;;;;;;;;;;;;;;;;2;2;;60304;53576;127;130;210;139;9;17;7;1;6;0;;;;;;;;;;;;;;;;;;;;;;;;;;;;;;;;;;;;;;;;;
202,0906;2,4901962;2,5490198;4,0980392;2,7450981;0,15686275;0,3137255;0,13725491;0,019607844;;;;;;;;;;;2733,9104;71,557739;-117,15687;-54,656864;;;;;22,638147;52,020813;;0,94354796;;;;;;;;;;;;;;;;;;2;2;;60304;53595;127;130;209;140;8;16;7;1;46;9;;;;;;;;;;;;;;;;;;;;;;;;;;;;;;;1289;;;;;;;;;;
202,0991;2,509804;2,5294118;4,0980392;2,7254903;0,15686275;0,33333334;0,13725491;0,019607844;;;;;;;;;;;2782,2068;71,122009;-117,15687;-54,166668;;;;;22,816401;51,620647;;;;;;;;;;;;;;;;;;;;2;2;;60304;53614;128;129;209;139;8;17;7;1;11;5;;;;;;;;;;;;;;;;;;;;;;;;;;;;;;;;;;;;;;;;;
202,1081;2,4901962;2,5490198;4,0980392;2,7450981;0,15686275;0,33333334;0,13725491;0,019607844;;;;;;;;;;;2733,9104;71,557739;-117,15687;-54,166668;;;;;22,638147;52,020813;;;;;;;;;;;;;;;;;;;;2;2;;60304;53634;127;130;209;140;8;17;7;1;11;77;;;;;;;;;;;;;;;;;;;;;;;;;;;;;;;;;;;;;;;;;
202,11705;2,4901962;2,5490198;4,1176472;2,7450981;0,15686275;0,33333334;0,13725491;0,019607844;;;;;;;;;;;2733,9104;71,557739;-117,15687;-54,166668;;;;;22,638147;52,020813;;;;;;;;;;;;;;;;;;;;2;2;;60304;53654;127;130;210;140;8;17;7;1;5;5;;;;;;;;;;;;;;;;;;;;;;;;;;;;;;;;;;;;;;;;;
202,126;2,4901962;2,5490198;4,0980392;2,7254903;0,15686275;0,33333334;0,13725491;0,019607844;;;;;;;;;;;2782,2068;71,122009;-117,15687;-54,166668;;;;;22,638147;52,020813;;;;;;;;;;;;;;;;;;;;2;2;;60304;53674;127;130;209;139;8;17;7;1;11;4;;;;;;;;;;;;;;;;;;;;;;;;;;;;;;;;;;;;;;;;;
202,13495;2,509804;2,5490198;4,1176472;2,7450981;0,15686275;0,33333334;0,13725491;0,019607844;;;;;;;;;;;2733,9104;71,557739;-117,15687;-54,166668;;;;;22,816401;52,020813;;;;;;;;;;;;;;;;;;;;2;2;;60304;53694;128;130;210;140;8;17;7;1;11;5;;;;;;;;;;;;;;;;;;;;;;;;;;;;;;;;;;;;;;;;;
202,14345;2,509804;2,5490198;4,0980392;2,7254903;0,17647059;0,3137255;0,13725491;0,019607844;;;;;;;;;;;2782,2068;71,122009;-116,17648;-54,656864;;;;;22,816401;52,020813;-0,305244;;;;;;;;;;;;;;;;;;;2;2;;60304;53713;128;130;209;139;9;16;7;1;45;95;;;;;;;;;;;;;;;;;;;;;;;;;;;;;;-417;;;;;;;;;;;
202,15245;2,4901962;2,5490198;4,1176472;2,7450981;0,15686275;0,33333334;0,13725491;0,019607844;;;;;;;;;;;2733,9104;71,557739;-117,15687;-54,166668;;;;;22,638147;52,020813;;;;;;;;;;;;;;;;;;;;2;2;;60304;53733;127;130;210;140;8;17;7;1;120;41;;;;;;;;;;;;;;;;;;;;;;;;;;;;;;;;;;;;;;;;;
202,1614;2,4901962;2,5490198;4,0980392;2,7450981;0,15686275;0,33333334;0,13725491;0,019607844;;;;;;;;;;;2733,9104;71,557739;-117,15687;-54,166668;;;;;22,638147;52,020813;-0,31183198;;;;;;;;;;;;;;;;;;;2;2;;60304;53753;127;130;209;140;8;17;7;1;122;86;;;;;;;;;;;;;;;;;;;;;;;;;;;;;;-426;;;;;;;;;;;
202,17035;2,4901962;2,5490198;4,0980392;2,7254903;0,15686275;0,33333334;0,13725491;0,019607844;;;;;;;;;;;2782,2068;71,122009;-117,15687;-54,166668;;;;;22,638147;52,020813;-0,31622398;;;;;;;;;;;;;;;;;;;2;2;;60304;53773;127;130;209;139;8;17;7;1;208;80;;;;;;;;;;;;;;;;;;;;;;;;;;;;;;-432;;;;;;;;;;;
202,1793;2,4901962;2,5490198;4,0980392;2,7254903;0,17647059;0,3137255;0,13725491;0,019607844;;;;;;;;;;;2782,2068;71,122009;-116,17648;-54,656864;;;;;22,638147;52,020813;-0,300852;;;;;;;;;;;;;;;;;;;2;2;;60304;53793;127;130;209;139;9;16;7;1;92;101;;;;;;;;;;;;;;;;;;;;;;;;;;;;;;-411;;;;;;;;;;;
202,18825;2,4901962;2,5490198;4,0980392;2,7254903;0,15686275;0,3137255;0,13725491;0,019607844;;;;;;;;;;;2782,2068;71,122009;-117,15687;-54,656864;;;;;22,638147;52,020813;-0,30012;;;;;;;;;;;;;;;;;;;2;2;;60304;53813;127;130;209;139;8;16;7;1;160;102;;;;;;;;;;;;;;;;;;;;;;;;;;;;;;-410;;;;;;;;;;;
202,19725;2,4901962;2,5490198;4,1176472;2,7450981;0,15686275;0,33333334;0,13725491;0,019607844;;;;;;;;;;;2733,9104;71,557739;-117,15687;-54,166668;;;;;22,638147;52,020813;;;;;;;;;;;;;;;;;;;;2;2;;60304;53833;127;130;210;140;8;17;7;1;168;41;;;;;;;;;;;;;;;;;;;;;;;;;;;;;;;;;;;;;;;;;
202,2062;2,4901962;2,5490198;4,0980392;2,7450981;0,15686275;0,33333334;0,13725491;0,019607844;;;;;;;;;;;2733,9104;71,557739;-117,15687;-54,166668;;;;;22,638147;52,020813;-0,27449998;;;;;;;;;;;;;;;;;;;2;2;;60304;53853;127;130;209;140;8;17;7;1;216;137;;;;;;;;;;;;;;;;;;;;;;;;;;;;;;-375;;;;;;;;;;;
202,21515;2,509804;2,5490198;4,0980392;2,7254903;0,15686275;0,33333334;0,13725491;0,019607844;;;;;;;;;;;2782,2068;71,122009;-117,15687;-54,166668;;;;;22,816401;52,020813;-0,29792398;;;;;;;;;;;;;;;;;;;2;2;;60304;53873;128;130;209;139;8;17;7;1;73;105;;;;;;;;;;;;;;;;;;;;;;;;;;;;;;-407;;;;;;;;;;;
202,2241;2,4901962;2,5490198;4,0980392;2,7254903;0,15686275;0,3137255;0,13725491;0,019607844;;;;;;;;;;;2782,2068;71,122009;-117,15687;-54,656864;;;;;22,638147;52,020813;-0,31329599;;;;;;;;;;;;;;;;;;;2;2;;60304;53893;127;130;209;139;8;16;7;1;185;84;;;;;;;;;;;;;;;;;;;;;;;;;;;;;;-428;;;;;;;;;;;
202,23305;2,4901962;2,5294118;4,0980392;2,7254903;0,15686275;0,33333334;0,13725491;0,019607844;;;;;;;;;;;2782,2068;71,122009;-117,15687;-54,166668;;;;;22,638147;51,620647;-0,30012;;;;;;;;;;;;;;;;;;;2;2;;60304;53913;127;129;209;139;8;17;7;1;131;102;;;;;;;;;;;;;;;;;;;;;;;;;;;;;;-410;;;;;;;;;;;
202,24205;2,509804;2,5490198;4,0980392;2,7254903;0,15686275;0,3137255;0,13725491;0,019607844;;;;;;;;;;;2782,2068;71,122009;-117,15687;-54,656864;;;;;22,816401;52,020813;;;;;;;;;;;;;;;;;;;;2;2;;60304;53933;128;130;209;139;8;16;7;1;47;41;;;;;;;;;;;;;;;;;;;;;;;;;;;;;;;;;;;;;;;;;
202,251;2,4901962;2,5490198;4,0980392;2,7254903;0,15686275;0,33333334;0,13725491;0,019607844;;;;;;;;;;;2782,2068;71,122009;-117,15687;-54,166668;;;;;22,638147;52,020813;-0,291336;;;;;;;;;;;;;;;;;;;2;2;;60304;53953;127;130;209;139;8;17;7;1;70;114;;;;;;;;;;;;;;;;;;;;;;;;;;;;;;-398;;;;;;;;;;;
202,25995;2,4901962;2,5490198;4,1176472;2,7254903;0,15686275;0,3137255;0,13725491;0,019607844;;;;;;;;;;;2782,2068;71,122009;-117,15687;-54,656864;;;;;22,638147;52,020813;-0,309636;;;;;;;;;;;;;;;;;;;2;2;;60304;53973;127;130;210;139;8;16;7;1;50;89;;;;;;;;;;;;;;;;;;;;;;;;;;;;;;-423;;;;;;;;;;;
202,268;2,509804;2,5294118;4,0980392;2,7254903;0,17647059;0,33333334;0,13725491;0,019607844;;;;;;;;;;;2782,2068;71,122009;-116,17648;-54,166668;;;;;22,816401;51,620647;;;;;;;;;;;;;;;;;;;;2;2;;60304;53991;128;129;209;139;9;17;7;1;191;3;;;;;;;;;;;;;;;;;;;;;;;;;;;;160;;;;;;;;;;;;;
202,27695;;;;;;;;;;;;;;;;;;;;;;;;;;;;;;;;;;;;;;;;;;;;;;;;;;;;;;;;;;;;;;;;;;;;;;;;;;;;;;;;;;;;;;;;;;160;;;;;;;;;;;;;
202,28505;2,4901962;2,5490198;4,0980392;2,7450981;0,15686275;0,33333334;0,13725491;0,019607844;;;;;;;;;;;2733,9104;71,557739;-117,15687;-54,166668;;;;;22,638147;52,020813;;;;;;;;;-0,19950001;;;;;;;;;;;2;2;;60304;54029;127;130;209;140;8;17;7;1;71;111;;;;;;;;;;;;;;;;;;;;;;;;;;;;;;;;;;;;;;-1425;;;
202,294;2,4901962;2,5294118;4,1176472;2,7450981;0,17647059;0,33333334;0,13725491;0,019607844;;;;;;;;;;;2733,9104;71,557739;-116,17648;-54,166668;;;;;22,638147;51,620647;;;;;;;;;;;;;;;;;;;;2;2;;60304;54049;127;129;210;140;9;17;7;1;185;0;;;;;;;;;;;;;;;;;;;;;;;;;;;;;;;;;;;;;;;;;
202,30295;2,5490198;2,5294118;4,0980392;2,7254903;0,15686275;0,3137255;0,13725491;0,019607844;;;;;;;;;;;2782,2068;71,122009;-117,15687;-54,656864;;;;;23,172909;51,620647;;;;;;;;;-0,20426001;;;;;;;;;;;2;2;;60304;54069;130;129;209;139;8;16;7;1;251;77;;;;;;;;;;;;;;;;;;;;;;;;;;;;;;;;;;;;;;-1459;;;
202,3119;2,4509804;2,5294118;4,0980392;2,7254903;0,15686275;0,3137255;0,13725491;0;;;;;;;;;;;2782,2068;71,122009;-117,15687;-54,656864;;;;;22,281641;51,620647;;;;;;;;;-0,20062001;;;;;;;;;;;2;2;;60304;54089;125;129;209;139;8;16;7;0;48;103;;;;;;;;;;;;;;;;;;;;;;;;;;;;;;;;;;;;;;-1433;;;
202,3209;2,4705882;2,5294118;4,1176472;2,7254903;0,15686275;0,3137255;0,13725491;0,019607844;;;;;;;;;;;2782,2068;71,122009;-117,15687;-54,656864;;;;;22,459894;51,620647;;;;;;;;;-0,19838001;;;;;;;;;;;2;2;;60304;54109;126;129;210;139;8;16;7;1;68;119;;;;;;;;;;;;;;;;;;;;;;;;;;;;;;;;;;;;;;-1417;;;
202,32985;2,3529413;2,5490198;4,0980392;2,7450981;0,15686275;0,33333334;0,13725491;0,019607844;;;;;;;;;;;2733,9104;71,557739;-117,15687;-54,166668;;;;;21,390375;52,020813;;;;;;;;;-0,19838001;;;;;;;;;;;2;2;;60304;54129;120;130;209;140;8;17;7;1;47;119;;;;;;;;;;;;;;;;;;;;;;;;;;;;;;;;;;;;;;-1417;;;
202,3388;2,2745099;2,5490198;4,0980392;2,7450981;0,15686275;0,3137255;0,13725491;0,019607844;;;;;;;;;;;2733,9104;71,557739;-117,15687;-54,656864;;;;;20,677362;52,020813;;;;;;;;;;;;;;;;;;;;2;2;;60304;54149;116;130;209;140;8;16;7;1;119;0;;;;;;;;;;;;;;;;;;;;;;;;;;;;;;;;;;;;;;;;;
202,34775;2,1176472;2,5686276;4,0980392;2,7450981;0,15686275;0,33333334;0,13725491;0,019607844;;;;;;;;;;;2733,9104;71,557739;-117,15687;-54,166668;;;;;19,251339;52,420971;;;;;;;;;-0,20412001;;;;;;;;;;;2;2;;60304;54169;108;131;209;140;8;17;7;1;121;78;;;;;;;;;;;;;;;;;;;;;;;;;;;;;;;;;;;;;;-1458;;;
202,3567;1,9607844;2,5490198;4,0980392;2,7450981;0,15686275;0,3137255;0,15686275;0,019607844;;;;;;;;;;;2733,9104;71,557739;-117,15687;-54,656864;;;;;17,825314;52,020813;;;;;;;;;-0,20356001;;;;;;;;;;;2;2;;60304;54189;100;130;209;140;8;16;8;1;208;82;;;;;;;;;;;;;;;;;;;;;;;;;;;;;;;;;;;;;;-1454;;;
202,3657;1,9411765;2,5490198;4,0980392;2,7450981;0,13725491;0,33333334;0,13725491;0,019607844;;;;;;;;;;;2733,9104;71,557739;-118,13726;-54,166668;;;;;17,64706;52,020813;;;;;;;;;-0,20356001;;;;;;;;;;;2;2;;60304;54209;99;130;209;140;7;17;7;1;81;82;;;;;;;;;;;;;;;;;;;;;;;;;;;;;;;;;;;;;;-1454;;;
202,37465;1,9019608;2,5294118;4,0980392;2,7450981;0,11764707;0,33333334;0,13725491;0,019607844;;;;;;;;;;;2733,9104;71,557739;-119,11765;-54,166668;;;;;17,290554;51,620647;;;;;;;;;-0,21126001;;;;;;;;;;;2;2;;60304;54229;97;129;209;140;6;17;7;1;160;27;;;;;;;;;;;;;;;;;;;;;;;;;;;;;;;;;;;;;;-1509;;;
202,3836;1,9019608;2,5294118;4,0980392;2,7450981;0,098039217;0,33333334;0,13725491;0,019607844;;;;;;;;;;;2733,9104;71,557739;-120,09805;-54,166668;;;;;17,290554;51,620647;;;;;;;;;;;;;;;;;;;;2;2;;60304;54249;97;129;209;140;5;17;7;1;166;0;;;;;;;;;;;;;;;;;;;;;;;;;;;;;;;;;;;;;;;;;
202,39255;1,9215688;2,5294118;4,0980392;2,7450981;0,11764707;0,33333334;0,15686275;0,019607844;;;;;;;;;;;2733,9104;71,557739;-119,11765;-54,166668;;;;;17,468807;51,620647;;;;;;;;;-0,20300001;;;;;;;;;;;2;2;;60304;54269;98;129;209;140;6;17;8;1;214;86;;;;;;;;;;;;;;;;;;;;;;;;;;;;;;;;;;;;;;-1450;;;
202,4015;1,9215688;2,5294118;4,0980392;2,7647059;0,11764707;0,33333334;0,15686275;0,019607844;;;;;;;;;;;2685,8518;71,993469;-119,11765;-54,166668;;;;;17,468807;51,620647;;;;;;;;;-0,20818001;;;;;;;;;;;2;2;;60304;54289;98;129;209;141;6;17;8;1;68;49;;;;;;;;;;;;;;;;;;;;;;;;;;;;;;;;;;;;;;-1487;;;
202,41045;1,9019608;2,5294118;4,0980392;2,7843139;0,13725491;0,33333334;0,13725491;0,019607844;;;;;;;;;;;2638,0286;72,429199;-118,13726;-54,166668;;;;;17,290554;51,620647;;;;;;;;;;;;;;;;;;;;2;2;;60304;54309;97;129;209;142;7;17;7;1;183;28;;;;;;;;;;;;;;;;;;;;;;;;;;;;;;;;;;;;;;;;;
202,419;1,8823531;2,5490198;4,0980392;2,8039217;0,11764707;0,3137255;0,13725491;0,019607844;;;;;;;;;;;2590,4377;72,864929;-119,11765;-54,656864;;;;;17,112301;52,020813;;;;;;;;;;;;;;;;;;;;2;2;;60304;54328;96;130;209;143;6;16;7;1;11;249;;;;;;;;;;;;;;;;;;;;;;;;;;;;;;;;;;;;;;;;;
202,42795;1,8627452;2,5294118;4,0980392;2,8235295;0,13725491;0,3137255;0,11764707;0,019607844;;;;;;;;;;;2543,0767;73,300659;-118,13726;-54,656864;;;;;16,934048;51,620647;;;;;;;;;;;;;;;;;;;;2;2;;60304;54348;95;129;209;144;7;16;6;1;10;0;;;;;;;;;;;;;;;;;;;;;;;;;;;;;;;;;;;;;;;;;
202,4369;1,8431373;2,5294118;4,0980392;2,9215686;0,15686275;0,33333334;0,15686275;0,019607844;;;;;;;;;;;2309,6331;75,479309;-117,15687;-54,166668;;;;;16,755795;51,620647;;;;;;;;;;;;;;;;;;;;2;2;;60304;54368;94;129;209;149;8;17;8;1;11;249;;;;;;;;;;;;;;;;;;;;;;;;;;;;;;;;;;;;;;;;;
202,44585;1,8823531;2,5686276;4,0980392;3;0,078431375;0,3137255;0,15686275;0,019607844;;;;;;;;;;;2126,7766;77,222229;-121,07843;-54,656864;;;;;17,112301;52,420971;;;;;;;;;;;;;;;;;;;;2;2;;60304;54388;96;131;209;153;4;16;8;1;11;249;;;;;;;;;;;;;;;;;;;;;;;;;;;;;;;;;;;;;;;;;
202,45485;1,8627452;2,5490198;4,0980392;2,7647059;0,17647059;0,3137255;0,15686275;0,019607844;;;;;;;;;;;2685,8518;71,993469;-116,17648;-54,656864;;;;;16,934048;52,020813;;;;;;;;;;;;;;;;;;;;2;2;;60304;54408;95;130;209;141;9;16;8;1;5;249;;;;;;;;;;;;;;;;;;;;;;;;;;;;;;;;;;;;;;;;;
202,46335;1,8823531;2,5490198;4,0980392;2,647059;0,13725491;0,3137255;0,15686275;0,019607844;;;;;;;;;;;2977,8203;69,379089;-118,13726;-54,656864;;;;;17,112301;52,020813;;;;;;;;-0,60256004;;;;;;;;;;;;2;2;;60304;54427;96;130;209;135;7;16;8;1;48;48;;;;;;;;;;;;;;;;;;;;;;;;;;;;;;;;;;;;;-4304;;;;
202,4723;1,9019608;2,5490198;4,0980392;2,7058825;0,15686275;0,3137255;0,15686275;0,019607844;;;;;;;;;;;2830,7407;70,686279;-117,15687;-54,656864;;;;;17,290554;52,020813;;;;;;;;;;;;;;;;;;;;2;2;;60304;54447;97;130;209;138;8;16;8;1;74;0;;;;;;;;;;;;;;;;;;;;;;;;;;;;;;;;;;;;;;;;;
202,48125;1,9019608;2,5294118;4,0980392;2,7450981;0,11764707;0,3137255;0,15686275;0,019607844;;;;;;;;;;;2733,9104;71,557739;-119,11765;-54,656864;;;;;17,290554;51,620647;;;;;;;;-0,57764;;;;;;;;;;;;2;2;;60304;54467;97;129;209;140;6;16;8;1;47;226;;;;;;;;;;;;;;;;;;;;;;;;;;;;;;;;;;;;;-4126;;;;
202,4902;1,8823531;2,5294118;4,0980392;2,8039217;0,13725491;0,3137255;0,15686275;0,019607844;;;;;;;;;;;2590,4377;72,864929;-118,13726;-54,656864;;;;;17,112301;51,620647;;;;;;;;-0,57764;;;;;;;;;;;;2;2;;60304;54487;96;129;209;143;7;16;8;1;113;226;;;;;;;;;;;;;;;;;;;;;;;;;;;;;;;;;;;;;-4126;;;;
202,4992;1,9019608;2,5490198;4,0980392;2,8235295;0,13725491;0,33333334;0,15686275;0,019607844;;;;;;;;;;;2543,0767;73,300659;-118,13726;-54,166668;;;;;17,290554;52,020813;;;;;;;;-0,54572004;;;;;;;;;;;;2;2;;60304;54507;97;130;209;144;7;17;8;1;120;198;;;;;;;;;;;;;;;;;;;;;;;;;;;;;;;;;;;;;-3898;;;;
202,5077;1,9019608;2,5686276;4,0980392;2,8431373;0,17647059;0,33333334;0,15686275;0,019607844;;;;;;;;;;;2495,9431;73,736389;-116,17648;-54,166668;;;;;17,290554;52,420971;;;;;;;;;;;;;;;;;;;;2;2;;60304;54526;97;131;209;145;9;17;8;1;11;239;;;;;;;;;;;;;;;;;;;;;;;;;;;;;;;;;;;;;;;;;
202,51665;1,8823531;2,5686276;4,0980392;2,8627453;0,25490198;0,3137255;0,15686275;0,019607844;;;;;;;;;;;2449,0339;74,172119;-112,25491;-54,656864;;;;;17,112301;52,420971;;;;;;;;;;;;;;;;;;;;2;2;;60304;54546;96;131;209;146;13;16;8;1;11;0;;;;;;;;;;;;;;;;;;;;;;;;;;;;;;;;;;;;;;;;;
202,52515;1,9019608;2,5686276;4,0980392;2,8627453;0,25490198;0,3137255;0,15686275;0,019607844;;;;;;;;;;;2449,0339;74,172119;-112,25491;-54,656864;;;;;17,290554;52,420971;;;;;;;0,16464001;;;;;;;;;;;;;2;2;;60304;54565;97;131;209;146;13;16;8;1;24;152;;;;;;;;;;;;;;;;;;;;;;;;;;;;;;;;;;;;1176;;;;;
202,5341;1,9019608;2,5686276;4,0980392;2,8823531;0,25490198;0,3137255;0,15686275;0,019607844;;;;;;;;;;;2402,3469;74,607849;-112,25491;-54,656864;;;;;17,290554;52,420971;;;;;;;;;;;;;;;;;;;;2;2;;60304;54585;97;131;209;147;13;16;8;1;122;36;;;;;;;;;;;;;;;;;;;;;;;;;;;;;;;;;;;;;;;;;
202,54265;1,9019608;2,5294118;4,0980392;2,8823531;0,25490198;0,3137255;0,13725491;0,019607844;;;;;;;;;;;2402,3469;74,607849;-112,25491;-54,656864;;;;;17,290554;51,620647;;;;;;;;;;;;;;;;;;;;2;2;;60304;54604;97;129;209;147;13;16;7;1;11;3;;;;;;;;;;;;;;;;;;;;;;;;;;;;;;;;;;;;;;;;;
202,5507;1,9019608;2,5294118;4,0980392;2,8823531;0,23529413;0,33333334;0,13725491;0,019607844;;;;;;;;;;;2402,3469;74,607849;-113,2353;-54,166668;;;;;17,290554;51,620647;;;;;;;;;;;;;;;;;;;;2;2;;60304;54622;97;129;209;147;12;17;7;1;11;0;;;;;;;;;;;;;;;;;;;;;;;;;;;;;;;;;;;;;;;;;
202,55965;1,9215688;2,5294118;4,0980392;2,8823531;0,23529413;0,3137255;0,13725491;0,019607844;;;;;;;;;;;2402,3469;74,607849;-113,2353;-54,656864;;;;;17,468807;51,620647;;;;;;;;;;;;;;;;;;;;2;2;;60304;54642;98;129;209;147;12;16;7;1;4;1;;;;;;;;;;;;;;;;;;;;;;;;;;;;;;;;;;;;;;;;;
202,5686;1,9019608;2,509804;4,0980392;2,8823531;0,23529413;0,33333334;0,13725491;0,019607844;;;;;;;;;;;2402,3469;74,607849;-113,2353;-54,166668;;;;;17,290554;51,22049;;;;;;;;;;;;;;;;;;;;2;2;;60304;54662;97;128;209;147;12;17;7;1;11;255;;;;;;;;;;;;;;;;;;;;;;;;;;;;;;;;;;;;;;;;;
202,5776;1,9019608;2,5294118;4,0980392;2,8823531;0,23529413;0,33333334;0,15686275;0,019607844;;;;;;;;;;;2402,3469;74,607849;-113,2353;-54,166668;;;;;17,290554;51,620647;;;;;;;;;;;;;;;;;;;;2;2;;60304;54682;97;129;209;147;12;17;8;1;11;0;;;;;;;;;;;;;;;;;;;;;;;;;;;;;;;;;;;;;;;;;
202,58655;1,9019608;2,5294118;4,0980392;2,8823531;0,23529413;0,33333334;0,15686275;0,019607844;;;;;;;;;;;2402,3469;74,607849;-113,2353;-54,166668;;;;;17,290554;51,620647;;;;;;;;;;;;;;;;;;;;2;2;;60304;54702;97;129;209;147;12;17;8;1;11;0;;;;;;;;;;;;;;;;;;;;;;;;;;;;;;;;;;;;;;;;;
202,59505;1,9019608;2,5490198;4,0980392;2,8823531;0,23529413;0,33333334;0,15686275;0,019607844;;;;;;;;;;;2402,3469;74,607849;-113,2353;-54,166668;;;;;17,290554;52,020813;;;;;0,07;;;;;;;;;;;;;;;2;2;;60304;54721;97;130;209;147;12;17;8;1;179;1;;;;;;;;;;;;;;;;;;;;;;;;;;;;;;;;;;1;;;;;;;
202,604;1,9019608;2,5490198;4,0980392;2,8823531;0,23529413;0,33333334;0,15686275;0,019607844;;;;;;;;;;;2402,3469;74,607849;-113,2353;-54,166668;;;;;17,290554;52,020813;;;;;;;;;;;;;;;;;;;;2;2;;60304;54741;97;130;209;147;12;17;8;1;122;0;;;;;;;;;;;;;;;;;;;;;;;;;;;;;;;;;;;;;;;;;
202,61295;1,9019608;2,5490198;4,0980392;2,8823531;0,23529413;0,33333334;0,15686275;0,019607844;;;;;;;;;;;2402,3469;74,607849;-113,2353;-54,166668;;;;;17,290554;52,020813;;;;;6,9299998;;;;;;;;;;;;;;;2;2;;60304;54761;97;130;209;147;12;17;8;1;222;99;;;;;;;;;;;;;;;;;;;;;;;;;;;;;;;;;;99;;;;;;;
202,62195;1,9019608;2,5294118;4,0980392;2,8823531;0,23529413;0,33333334;0,15686275;0,019607844;;;;;;;;;;;2402,3469;74,607849;-113,2353;-54,166668;;;;;17,290554;51,620647;;;;;4,5500002;;;;;;;;;;;;;;;2;2;;60304;54781;97;129;209;147;12;17;8;1;90;65;;;;;;;;;;;;;;;;;;;;;;;;;;;;;;;;;;65;;;;;;;
202,6309;1,9019608;2,5294118;4,0980392;2,9019608;0,23529413;0,33333334;0,15686275;0,019607844;;;;;;;;;;;2355,8816;75,043579;-113,2353;-54,166668;;;;;17,290554;51,620647;;;;;5,7400002;;;;;;;;;;;;;;;2;2;;60304;54801;97;129;209;148;12;17;8;1;160;82;;;;;;;;;;;;;;;;;;;;;;;;;;;;;;;;;;82;;;;;;;
202,63985;1,9019608;2,5490198;4,0980392;2,9019608;0,25490198;0,33333334;0,15686275;0,019607844;;;;;;;;;;;2355,8816;75,043579;-112,25491;-54,166668;;;;;17,290554;52,020813;;;;;7,4900002;;;;;;;;;;;;;;;2;2;;60304;54821;97;130;209;148;13;17;8;1;171;107;;;;;;;;;;;;;;;;;;;;;;;;;;;;;;;;;;107;;;;;;;
202,6488;1,9019608;2,5490198;4,0980392;2,9019608;0,25490198;0,33333334;0,15686275;0,019607844;;;;;;;;;;;2355,8816;75,043579;-112,25491;-54,166668;;;;;17,290554;52,020813;;;;;;;;;;;;;;;;;;;;2;2;;60304;54841;97;130;209;148;13;17;8;1;217;0;;;;;;;;;;;;;;;;;;;;;;;;;;;;;;;;;;;;;;;;;
202,65775;1,9019608;2,5490198;4,0980392;2,9019608;0,25490198;0,33333334;0,15686275;0,019607844;;;;;;;;;;;2355,8816;75,043579;-112,25491;-54,166668;;;;;17,290554;52,020813;;;;;16,52;;;;;;;;;;;;;;;2;2;;60304;54861;97;130;209;148;13;17;8;1;77;236;;;;;;;;;;;;;;;;;;;;;;;;;;;;;;;;;;236;;;;;;;
202,66675;1,9019608;2,5490198;4,0980392;2,9019608;0,25490198;0,33333334;0,15686275;0,019607844;;;;;;;;;;;2355,8816;75,043579;-112,25491;-54,166668;;;;;17,290554;52,020813;;;;;18,9;;;;;;;;;;;;;;;2;2;;60304;54881;97;130;209;148;13;17;8;1;182;14;;;;;;;;;;;;;;;;;;;;;;;;;;;;;;;;;;270;;;;;;;
202,6757;1,9215688;2,5490198;4,0980392;2,9019608;0,25490198;0,33333334;0,15686275;0,019607844;;;;;;;;;;;2355,8816;75,043579;-112,25491;-54,166668;;;;;17,468807;52,020813;;;;;19,32;;;;;;;;;;;;;;;2;2;;60304;54901;98;130;209;148;13;17;8;1;226;20;;;;;;;;;;;;;;;;;;;;;;;;;;;;;;;;;;276;;;;;;;
202,68465;1,9019608;2,5490198;4,0980392;2,9215686;0,25490198;0,33333334;0,15686275;0,019607844;;;;;;;;;;;2309,6331;75,479309;-112,25491;-54,166668;;;;;17,290554;52,020813;;;;;21,49;;;;;;;;;;;;;;;2;2;;60304;54921;97;130;209;149;13;17;8;1;47;51;;;;;;;;;;;;;;;;;;;;;;;;;;;;;;;;;;307;;;;;;;
202,6936;1,9019608;2,5490198;4,0980392;2,9215686;0,25490198;0,33333334;0,15686275;0,019607844;;;;;;;;;;;2309,6331;75,479309;-112,25491;-54,166668;;;;;17,290554;52,020813;;;;;;;;;;;;;;;;;;;;2;2;;60304;54941;97;130;209;149;13;17;8;1;77;0;;;;;;;;;;;;;;;;;;;;;;;;;;;;;;;;;;;;;;;;;
202,70255;1,9019608;2,5294118;4,0980392;2,9215686;0,25490198;0,33333334;0,15686275;0,019607844;;;;;;;;;;;2309,6331;75,479309;-112,25491;-54,166668;;;;;17,290554;51,620647;;;;;29,960001;;;;;;;;;;;;;;;2;2;;60304;54961;97;129;209;149;13;17;8;1;46;172;;;;;;;;;;;;;;;;;;;;;;;;;;;;;;;;;;428;;;;;;;
202,71155;1,9019608;2,5294118;4,0980392;2,9215686;0,25490198;0,33333334;0,15686275;0,019607844;;;;;;;;;;;2309,6331;75,479309;-112,25491;-54,166668;;;;;17,290554;51,620647;;;;;33,529999;;;;;;;;;;;;;;;2;2;;60304;54981;97;129;209;149;13;17;8;1;168;223;;;;;;;;;;;;;;;;;;;;;;;;;;;;;;;;;;479;;;;;;;
202,72005;1,9019608;2,5294118;4,0980392;2,9215686;0,25490198;0,33333334;0,15686275;0,019607844;;;;;;;;;;;2309,6331;75,479309;-112,25491;-54,166668;;;;;17,290554;51,620647;;;;;;;;;;;;;;;;;;;;2;2;;60304;55000;97;129;209;149;13;17;8;1;11;1;;;;;;;;;;;;;;;;;;;;;;;;;;;;;;;;;;;;;;;;;
202,729;1,9019608;2,5294118;4,0980392;2,9215686;0,25490198;0,33333334;0,15686275;0,019607844;;;;;;;;;;;2309,6331;75,479309;-112,25491;-54,166668;;;;;17,290554;51,620647;;;;;;;;;;;;;;;;;;;;2;2;;60304;55020;97;129;209;149;13;17;8;1;11;2;;;;;;;;;;;;;;;;;;;;;;;;;;;;;;;;;;;;;;;;;
202,73795;1,9019608;2,5490198;4,0980392;2,9215686;0,23529413;0,33333334;0,15686275;0,019607844;;;;;;;;;;;2309,6331;75,479309;-113,2353;-54,166668;;;;;17,290554;52,020813;;;;;;;;;;;;;;;;;;;;2;2;;60304;55040;97;130;209;149;12;17;8;1;11;215;;;;;;;;;;;;;;;;;;;;;;;;;;;;;;;;;;;;;;;;;
202,7469;1,9019608;2,5490198;4,0980392;2,9215686;0,23529413;0,33333334;0,15686275;0,019607844;;;;;;;;;;;2309,6331;75,479309;-113,2353;-54,166668;;;;;17,290554;52,020813;;;;;;;;;;;;;;;;;;;;2;2;;60304;55060;97;130;209;149;12;17;8;1;4;2;;;;;;;;;;;;;;;;;;;;;;;;;;;;;;;;;;;;;;;;;
202,7559;1,9019608;2,5490198;4,0980392;2,9215686;0,23529413;0,33333334;0,15686275;0,019607844;;;;;;;;;;;2309,6331;75,479309;-113,2353;-54,166668;;;;;17,290554;52,020813;;;;;;;;;;;;;;;;;;;;2;2;;60304;55080;97;130;209;149;12;17;8;1;11;2;;;;;;;;;;;;;;;;;;;;;;;;;;;;;;;;;;;;;;;;;
202,76485;1,9019608;2,5490198;4,0980392;2,9215686;0,23529413;0,33333334;0,15686275;0,019607844;;;;;;;;;;;2309,6331;75,479309;-113,2353;-54,166668;;;;;17,290554;52,020813;;;;;;;;;;;;;;;;;;;;2;2;;60304;55100;97;130;209;149;12;17;8;1;15;2;;;;;;;;;;;;;;;;;;;;;;;;;;;;;;;;;;;;;;;;;
202,7738;1,9019608;2,5490198;4,0980392;2,9215686;0,23529413;0,33333334;0,15686275;0,019607844;;;;;;;;;;;2309,6331;75,479309;-113,2353;-54,166668;;;;;17,290554;52,020813;;;;;;;;;;;;;;;;;;;;2;2;;60304;55120;97;130;209;149;12;17;8;1;11;3;;;;;;;;;;;;;;;;;;;;;;;;;;;;;;;;;;;;;;;;;
202,78275;1,9019608;2,5294118;4,0980392;2,9215686;0,23529413;0,33333334;0,15686275;0,019607844;112,091;113,84967;113,30969;113,47998;113,47998;100,88766;114,99765;113,75687;112,85553;112,26785;2309,6331;75,479309;-113,2353;-54,166668;;;;;17,290554;51,620647;;;;;;;;;;479,39621;456,65598;463,5011;461,32971;461,32971;659,73749;442,49338;457,82401;469,35156;477,05072;2;2;;60304;55140;97;129;209;149;12;17;8;1;161;13;2;2;;41121;2998;2862;2903;2890;2890;4056;2777;2869;2938;2984;1414;1371;;;;;;;;;;;;;;;;;;;;;;;;;
202,7917;1,9019608;2,5490198;4,0980392;2,9215686;0,23529413;0,33333334;0,15686275;0,019607844;;;;;;;;;;;2309,6331;75,479309;-113,2353;-54,166668;;;;;17,290554;52,020813;;;;;;;;;;;;;;;;;;;;2;2;;60304;55160;97;130;209;149;12;17;8;1;11;3;;;;;;;;;;;;;;;;;;;;;;;;;;;;;;;;;;;;;;;;;
202,8007;1,9019608;2,5490198;4,0980392;2,9215686;0,23529413;0,33333334;0,15686275;0,019607844;;;;;;;;;;;2309,6331;75,479309;-113,2353;-54,166668;;;;;17,290554;52,020813;;;;;;;;;;;;;;;;;;;;2;2;;60304;55180;97;130;209;149;12;17;8;1;10;3;;;;;;;;;;;;;;;;;;;;;;;;;;;;;;;;;;;;;;;;;
202,80965;1,9019608;2,5294118;4,0980392;2,9019608;0,25490198;0,33333334;0,15686275;0,019607844;;;;;;;;;;;2355,8816;75,043579;-112,25491;-54,166668;;;;;17,290554;51,620647;;;;;;;;;;;;;;;;;;;;2;2;;60304;55200;97;129;209;148;13;17;8;1;11;4;;;;;;;;;;;;;;;;;;;;;;;;;;;;;;;;;;;;;;;;;
202,8186;1,9019608;2,5490198;4,0980392;2,9019608;0,25490198;0,33333334;0,15686275;0,019607844;;;;;;;;;;;2355,8816;75,043579;-112,25491;-54,166668;;;;;17,290554;52,020813;;;;;;;;;;;;;;;;;;;;2;2;;60304;55220;97;130;209;148;13;17;8;1;11;4;;;;;;;;;;;;;;;;;;;;;;;;;;;;;;;;;;;;;;;;;
202,82755;1,9019608;2,5294118;4,0980392;2,9019608;0,25490198;0,33333334;0,15686275;0,019607844;;;;;;;;;;;2355,8816;75,043579;-112,25491;-54,166668;;;;;17,290554;51,620647;;;;;;;;;;;;;;;;;;;;2;2;;60304;55240;97;129;209;148;13;17;8;1;5;117;;;;;;;;;;;;;;;;;;;;;;;;;;;;;;;;;;;;;;;;;
202,8365;1,9019608;2,5490198;4,0980392;2,9019608;0,25490198;0,33333334;0,15686275;0,019607844;;;;;;;;;;;2355,8816;75,043579;-112,25491;-54,166668;;;;;17,290554;52,020813;;;;;;;;;;;;;;;;;;;;2;2;;60304;55260;97;130;209;148;13;17;8;1;11;4;;;;;;;;;;;;;;;;;;;;;;;;;;;;;;;;;;;;;;;;;
202,8455;1,9019608;2,5490198;4,0980392;2,8823531;0,25490198;0,33333334;0,15686275;0,019607844;;;;;;;;;;;2402,3469;74,607849;-112,25491;-54,166668;;;;;17,290554;52,020813;;;;;;;;;;;;;;;;;;;;2;2;;60304;55280;97;130;209;147;13;17;8;1;11;5;;;;;;;;;;;;;;;;;;;;;;;;;;;;;;;;;;;;;;;;;
202,85445;1,9019608;2,5294118;4,0980392;2,8823531;0,25490198;0,33333334;0,15686275;0,019607844;;;;;;;;;;;2402,3469;74,607849;-112,25491;-54,166668;;;;;17,290554;51,620647;;;;;;;;;;;;;;;;;;;;2;2;;60304;55300;97;129;209;147;13;17;8;1;11;5;;;;;;;;;;;;;;;;;;;;;;;;;;;;;;;;;;;;;;;;;
202,8634;1,9019608;2,5294118;4,0980392;2,8823531;0,27450982;0,33333334;0,15686275;0,019607844;;;;;;;;;;;2402,3469;74,607849;-111,27451;-54,166668;;;;;17,290554;51,620647;;;;;;;;;;;;;;;;;;;;2;2;;60304;55320;97;129;209;147;14;17;8;1;5;5;;;;;;;;;;;;;;;;;;;;;;;;;;;;;;;;;;;;;;;;;
202,87235;1,9019608;2,5490198;4,0980392;2,8627453;0,27450982;0,33333334;0,15686275;0,019607844;;;;;;;;;;;2449,0339;74,172119;-111,27451;-54,166668;;;;;17,290554;52,020813;;;;;;;;;;;;;;;;;;;;2;2;;60304;55340;97;130;209;146;14;17;8;1;11;175;;;;;;;;;;;;;;;;;;;;;;;;;;;;;;;;;;;;;;;;;
202,8813;1,8823531;2,5490198;4,0980392;2,8627453;0,27450982;0,33333334;0,15686275;0,019607844;;;;;;;;;;;2449,0339;74,172119;-111,27451;-54,166668;;;;;17,112301;52,020813;;;;;;;;;;;;;;;;;;;;2;2;;60304;55360;96;130;209;146;14;17;8;1;15;6;;;;;;;;;;;;;;;;;;;;;;;;;;;;;;;;;;;;;;;;;
202,8903;1,9019608;2,5294118;4,0980392;2,8431373;0,27450982;0,33333334;0,15686275;0,019607844;;;;;;;;;;;2495,9431;73,736389;-111,27451;-54,166668;;;;;17,290554;51,620647;;;;;;;;;;;;;;;;;;;;2;2;;60304;55380;97;129;209;145;14;17;8;1;11;6;;;;;;;;;;;;;;;;;;;;;;;;;;;;;;;;;;;;;;;;;
202,89925;1,9019608;2,5490198;4,0980392;2,8431373;0,29411766;0,3137255;0,15686275;0,019607844;112,14145;113,80991;113,34894;113,4537;113,4537;100,89664;115,05264;113,75687;112,86844;112,30585;2495,9431;73,736389;-110,29412;-54,656864;;;;;17,290554;52,020813;;;;;;;;;;478,72595;457,15652;462,99991;461,66373;461,66373;659,56409;441,82785;457,82401;469,18433;476,54825;2;2;;60304;55400;97;130;209;145;15;16;8;1;161;7;2;2;;41121;2994;2865;2900;2892;2892;4055;2773;2869;2937;2981;1645;1344;;;;;;;;;;;;;;;;;;;;;;;;;
202,90775;1,9019608;2,5490198;4,0980392;2,8235295;0,33333334;0,33333334;0,15686275;0,019607844;;;;;;;;;;;2543,0767;73,300659;-108,33334;-54,166668;;;;;17,290554;52,020813;;;;-2,73;;;;;;;;;;;;;;;;2;2;;60304;55419;97;130;209;144;17;17;8;1;170;217;;;;;;;;;;;;;;;;;;;;;;;;;;;;;;;;;-39;;;;;;;;
202,9167;1,9019608;2,5490198;4,0980392;2,8039217;0,43137255;0,33333334;0,15686275;0,019607844;;;;;;;;;;;2590,4377;72,864929;-103,43137;-54,166668;;;;;17,290554;52,020813;;;;;;;;;;;;;;;;;;;;2;2;;60304;55439;97;130;209;143;22;17;8;1;214;114;;;;;;;;;;;;;;;;;;;;;;;;;;;;;;;;;;;;;;;;;
202,9257;1,8823531;2,5490198;4,0980392;2,8039217;0,50980395;0,33333334;0,15686275;0,019607844;;;;;;;;;;;2590,4377;72,864929;-99,509804;-54,166668;;;;;17,112301;52,020813;;;;0,84000003;;;;;;;;;;;;;;;;2;2;;60304;55459;96;130;209;143;26;17;8;1;70;12;;;;;;;;;;;;;;;;;;;;;;;;;;;;;;;;;12;;;;;;;;
202,93465;1,8823531;2,5490198;4,0980392;2,7843139;0,58823532;0,33333334;0,15686275;0,019607844;;;;;;;;;;;2638,0286;72,429199;-95,588234;-54,166668;;;;;17,112301;52,020813;;;;-0,21000001;;;;;;;;;;;;;;;;2;2;;60304;55479;96;130;209;142;30;17;8;1;179;253;;;;;;;;;;;;;;;;;;;;;;;;;;;;;;;;;-3;;;;;;;;
202,9436;1,8823531;2,5490198;4,0980392;2,7843139;0,60784316;0,33333334;0,15686275;0,019607844;;;;;;;;;;;2638,0286;72,429199;-94,607841;-54,166668;;;;;17,112301;52,020813;;;;-2,5899999;;;;;;;;;;;;;;;;2;2;;60304;55499;96;130;209;142;31;17;8;1;201;219;;;;;;;;;;;;;;;;;;;;;;;;;;;;;;;;;-37;;;;;;;;
202,95255;1,8823531;2,5490198;4,0980392;2,7450981;0,60784316;0,33333334;0,15686275;0,019607844;;;;;;;;;;;2733,9104;71,557739;-94,607841;-54,166668;;;;;17,112301;52,020813;;;;-0,14;;;;;;;;;;;;;;;;2;2;;60304;55519;96;130;209;140;31;17;8;1;46;254;;;;;;;;;;;;;;;;;;;;;;;;;;;;;;;;;-2;;;;;;;;
202,9615;1,8823531;2,5490198;4,0980392;2,7450981;0,60784316;0,33333334;0,15686275;0,019607844;;;;;;;;;;;2733,9104;71,557739;-94,607841;-54,166668;;;;;17,112301;52,020813;;;;;;;;;;;;;;;;;;;;2;2;;60304;55539;96;130;209;140;31;17;8;1;74;114;;;;;;;;;;;;;;;;;;;;;;;;;;;;;;;;;;;;;;;;;
202,9705;1,9019608;2,5294118;4,0980392;2,7254903;0,64705884;0,33333334;0,15686275;0,019607844;;;;;;;;;;;2782,2068;71,122009;-92,647057;-54,166668;;;;;17,290554;51,620647;;;;-0,21000001;;;;;;;;;;;;;;;;2;2;;60304;55559;97;129;209;139;33;17;8;1;51;253;;;;;;;;;;;;;;;;;;;;;;;;;;;;;;;;;-3;;;;;;;;
202,979;1,8823531;2,5490198;4,0980392;2,6862745;0,70588237;0,33333334;0,15686275;0,019607844;;;;;;;;;;;2879,5208;70,250549;-89,705887;-54,166668;;;;;17,112301;52,020813;;;;;;;;;;;;;;;;;;;;2;2;;60304;55578;96;130;209;137;36;17;8;1;6;0;;;;;;;;;;;;;;;;;;;;;;;;;;;;;;;;;;;;;;;;;
202,98705;1,8823531;2,5490198;4,0980392;2,6666667;0,78431374;0,33333334;0,15686275;0,019607844;;;;;;;;;;;2928,5464;69,814819;-85,784317;-54,166668;;;;;17,112301;52,020813;;;;;;;;;;;;;;;;;;;;2;2;;60304;55596;96;130;209;136;40;17;8;1;10;7;;;;;;;;;;;;;;;;;;;;;;;;;;;;;;;;;;;;;;;;;
202,99555;1,8823531;2,5490198;4,0980392;2,647059;0,88235295;0,33333334;0,15686275;0,019607844;;;;;;;;;;;2977,8203;69,379089;-80,882355;-54,166668;;;;;17,112301;52,020813;;16,306032;;;;;;;;;;;;;;;;;;2;2;;60304;55615;96;130;209;135;45;17;8;1;77;4;;;;;;;;;;;;;;;;;;;;;;;;;;;;;;;22276;;;;;;;;;;
203,00455;1,8823531;2,5490198;4,0980392;2,6274512;0,96078438;0,33333334;0,15686275;0,019607844;;;;;;;;;;;3027,3452;68,943359;-76,960785;-54,166668;;;;;17,112301;52,020813;;;;;;;;;;;;;;;;;;;;2;2;;60304;55635;96;130;209;134;49;17;8;1;184;125;;;;;;;;;;;;;;;;;;;;;;;;;;;;;;;;;;;;;;;;;
203,0135;1,8823531;2,5490198;4,0980392;2,6078432;1,0196079;0,33333334;0,15686275;0,019607844;;;;;;;;;;;3077,1213;68,507629;-74,019608;-54,166668;;;;;17,112301;52,020813;;16,209408;;;;;;;;;;;;;;;;;;2;2;;60304;55655;96;130;209;133;52;17;8;1;36;128;;;;;;;;;;;;;;;;;;;;;;;;;;;;;;;22144;;;;;;;;;;
203,02245;1,8823531;2,5490198;4,0980392;2,5686276;1,0980393;0,33333334;0,15686275;0,019607844;;;;;;;;;;;3177,4529;67,636169;-70,098038;-54,166668;;;;;17,112301;52,020813;;15,934908;;;;;;;;;;;;;;;;;;2;2;;60304;55675;96;130;209;131;56;17;8;1;45;9;;;;;;;;;;;;;;;;;;;;;;;;;;;;;;;21769;;;;;;;;;;
203,0314;1,8823531;2,5490198;4,0980392;2,5490198;1,1568627;0,33333334;0,15686275;0,019607844;;;;;;;;;;;3228,011;67,200439;-67,156868;-54,166668;;;;;17,112301;52,020813;;15,987612;;;;;;;;;;;;;;;;;;2;2;;60304;55695;96;130;209;130;59;17;8;1;75;81;;;;;;;;;;;;;;;;;;;;;;;;;;;;;;;21841;;;;;;;;;;
203,04035;1,8823531;2,5490198;4,0980392;2,509804;1,1764706;0,33333334;0,15686275;0,019607844;;;;;;;;;;;3329,9304;66,328979;-66,176468;-54,166668;;;;;17,112301;52,020813;;16,200624;;;;;;;;;;;;;;;;;;2;2;;60304;55715;96;130;209;128;60;17;8;1;47;116;;;;;;;;;;;;;;;;;;;;;;;;;;;;;;;22132;;;;;;;;;;
203,0493;1,8823531;2,5490198;4,0980392;2,4901962;1,1960784;0,33333334;0,15686275;0,019607844;;;;;;;;;;;3381,2971;65,89325;-65,196083;-54,166668;;;;;17,112301;52,020813;;;;;;;;;;;;;;;;;;;;2;2;;60304;55735;96;130;209;127;61;17;8;1;144;124;;;;;;;;;;;;;;;;;;;;;;;;;;;;;;;;;;;;;;;;;
203,0583;1,8823531;2,5490198;4,0980392;2,4509804;1,2352941;0,33333334;0,15686275;0,019607844;;;;;;;;;;;3484,8628;65,02179;-63,235294;-54,166668;;;;;17,112301;52,020813;;16,120104;;;;;;;;;;;;;;;;;;2;2;;60304;55755;96;130;209;125;63;17;8;1;120;6;;;;;;;;;;;;;;;;;;;;;;;;;;;;;;;22022;;;;;;;;;;
203,06725;1,8823531;2,5490198;4,0980392;2,4117649;1,2156863;0,33333334;0,15686275;0,019607844;;;;;;;;;;;3589,5569;64,15033;-64,215683;-54,166668;;;;;17,112301;52,020813;;16,199892;;;;;;;;;;;;;;;;;;2;2;;60304;55775;96;130;209;123;62;17;8;1;214;115;;;;;;;;;;;;;;;;;;;;;;;;;;;;;;;22131;;;;;;;;;;
203,0762;1,9019608;2,5490198;4,0980392;2,3725491;1,2156863;0,33333334;0,15686275;0,019607844;;;;;;;;;;;3695,4082;63,27887;-64,215683;-54,166668;;;;;17,290554;52,020813;;17,173452;;;;;;;;;;;;;;;;;;2;2;;60304;55795;97;130;209;121;62;17;8;1;89;165;;;;;;;;;;;;;;;;;;;;;;;;;;;;;;;23461;;;;;;;;;;
203,08515;1,8823531;2,5490198;4,0980392;2,3333335;1,1960784;0,33333334;0,15686275;0,019607844;;;;;;;;;;;3802,4485;62,407413;-65,196083;-54,166668;;;;;17,112301;52,020813;;15,47448;;;;;;;;;;;;;;;;;;2;2;;60304;55815;96;130;209;119;61;17;8;1;160;148;;;;;;;;;;;;;;;;;;;;;;;;;;;;;;;21140;;;;;;;;;;
203,09415;1,8823531;2,5490198;4,0980392;2,2941177;1,1764706;0,33333334;0,15686275;0,019607844;;;;;;;;;;;3910,707;61,53595;-66,176468;-54,166668;;;;;17,112301;52,020813;;;;;;;;;;;;;;;;;;;;2;2;;60304;55835;96;130;209;117;60;17;8;1;166;124;;;;;;;;;;;;;;;;;;;;;;;;;;;;;;;;;;;;;;;;;
203,1031;1,8823531;2,5490198;4,0784316;2,2549021;1,1764706;0,33333334;0,15686275;0,019607844;;;;;;;;;;;4020,2126;60,664494;-66,176468;-54,166668;;;;;17,112301;52,020813;;16,117176;;;;;;;;;;;;;;;;;;2;2;;60304;55855;96;130;208;115;60;17;8;1;213;2;;;;;;;;;;;;;;;;;;;;;;;;;;;;;;;22018;;;;;;;;;;
203,11205;1,8823531;2,5490198;4,0980392;2,1960785;1,1568627;0,33333334;0,15686275;0,019607844;;;;;;;;;;;4186,8823;59,357304;-67,156868;-54,166668;;;;;17,112301;52,020813;;15,907092;;;;;;;;;;;;;;;;;;2;2;;60304;55875;96;130;209;112;59;17;8;1;76;227;;;;;;;;;;;;;;;;;;;;;;;;;;;;;;;21731;;;;;;;;;;
203,12055;1,8823531;2,5490198;4,0980392;2,1568627;1,1568627;0,33333334;0,15686275;0,019607844;112,11621;113,77011;113,30969;113,4537;113,46686;100,8338;115,03891;113,84967;112,85553;112,20459;4299,6567;58,48584;-67,156868;-54,166668;;;;;17,112301;52,020813;;;;;;;;;;479,06107;457,65714;463,5011;461,66373;461,4967;660,77789;441,99423;456,65598;469,35156;477,88828;2;2;;60304;55894;96;130;209;110;59;17;8;1;161;86;2;2;;41121;2996;2868;2903;2892;2891;4062;2774;2862;2938;2989;1408;1036;;;;;;;;;;;;;;;;;;;;;;;;;
203,1295;1,8823531;2,5490198;4,0980392;2,1176472;1,1960784;0,33333334;0,15686275;0,019607844;;;;;;;;;;;4413,7993;57,614384;-65,196083;-54,166668;;;;;17,112301;52,020813;;;;;;;;;;;;;;;;;;;;2;2;;60304;55914;96;130;209;108;61;17;8;1;11;83;;;;;;;;;;;;;;;;;;;;;;;;;;;;;;;;;;;;;;;;;
203,1385;1,9019608;2,5490198;4,0980392;2,0588236;1,3333334;0,33333334;0,15686275;0,019607844;;;;;;;;;;;4587,6616;56,307194;-58,333332;-54,166668;;;;;17,290554;52,020813;;;;;;;;;;;;;;;;;;;;2;2;;60304;55934;97;130;209;105;68;17;8;1;10;77;;;;;;;;;;;;;;;;;;;;;;;;;;;;;;;;;;;;;;;;;
203,14745;1,8823531;2,5490198;4,0980392;2,019608;1,5686275;0,33333334;0,15686275;0,019607844;;;;;;;;;;;4705,395;55,435738;-46,568626;-54,166668;;;;;17,112301;52,020813;;;;;;;;;;;;;;;;;;;;2;2;;60304;55954;96;130;209;103;80;17;8;1;11;81;;;;;;;;;;;;;;;;;;;;;;;;;;;;;;;;;;;;;;;;;
203,1564;1,9019608;2,5490198;4,0980392;1,9607844;1,7843138;0,33333334;0,15686275;0,019607844;;;;;;;;;;;4884,8379;54,128544;-35,784309;-54,166668;;;;;17,290554;52,020813;;;;;;;;;;;;;;;;;;;;2;2;;60304;55974;97;130;209;100;91;17;8;1;11;85;;;;;;;;;;;;;;;;;;;;;;;;;;;;;;;;;;;;;;;;;
203,16535;1,8823531;2,5490198;4,0980392;1,9019608;1,8431373;0,33333334;0,15686275;0,019607844;;;;;;;;;;;5067,8262;52,821354;-32,843136;-54,166668;;;;;17,112301;52,020813;;;;;;;;;;;;;;;;;;;;2;2;;60304;55994;96;130;209;97;94;17;8;1;6;83;;;;;;;;;;;;;;;;;;;;;;;;;;;;;;;;;;;;;;;;;
203,1743;1,8823531;2,5490198;4,0980392;1,8627452;1,7450981;0,33333334;0,15686275;0,019607844;;;;;;;;;;;5191,8647;51,949894;-37,745094;-54,166668;;;;;17,112301;52,020813;;;;;;;;;;;;;;;;;;;;2;2;;60304;56014;96;130;209;95;89;17;8;1;11;83;;;;;;;;;;;;;;;;;;;;;;;;;;;;;;;;;;;;;;;;;
203,1833;1,8823531;2,5490198;4,0980392;1,8039216;1,6470588;0,33333334;0,15686275;0,019607844;;;;;;;;;;;5381,1211;50,642704;-42,64706;-54,166668;;;;;17,112301;52,020813;;;;;;;;;;;;;;;;;;;;2;2;;60304;56034;96;130;209;92;84;17;8;1;11;77;;;;;;;;;;;;;;;;;;;;;;;;;;;;;;;;;;;;;;;;;
203,19225;1,9019608;2,5490198;4,0784316;1,7450981;1,6862745;0,33333334;0,15686275;0,019607844;;;;;;;;;;;5574,375;49,335514;-40,686275;-54,166668;;;;;17,290554;52,020813;;;;;;;;;;;;;;;;;;;;2;2;;60304;56054;97;130;208;89;86;17;8;1;11;84;;;;;;;;;;;;;;;;;;;;;;;;;;;;;;;;;;;;;;;;;
203,2012;1,8823531;2,5490198;4,0784316;1,7058824;1,6862745;0,33333334;0,15686275;0,019607844;;;;;;;;;;;5705,5264;48,464054;-40,686275;-54,166668;;;;;17,112301;52,020813;;;;;;;;;;;;;;;;;;;;2;2;;60304;56074;96;130;208;87;86;17;8;1;3;83;;;;;;;;;;;;;;;;;;;;;;;;;;;;;;;;;;;;;;;;;
203,21015;1,9019608;2,5490198;4,0784316;1,6274511;1,6274511;0,33333334;0,15686275;0,019607844;;;;;;;;;;;5973,6689;46,721138;-43,627449;-54,166668;;;;;17,290554;52,020813;;;;;;;;;;;;;;;;;;;;2;2;;60304;56094;97;130;208;83;83;17;8;1;11;84;;;;;;;;;;;;;;;;;;;;;;;;;;;;;;;;;;;;;;;;;
203,2191;1,8823531;2,5490198;4,0784316;1,5882354;1,5882354;0,33333334;0,15686275;0,019607844;;;;;;;;;;;6110,7871;45,849678;-45,588234;-54,166668;;;;;17,112301;52,020813;;;;;;;;;;;;;;;;;;;;2;2;;60304;56114;96;130;208;81;81;17;8;1;15;84;;;;;;;;;;;;;;;;;;;;;;;;;;;;;;;;;;;;;;;;;
203,2281;1,9019608;2,5490198;4,0784316;1,5490197;1,5686275;0,33333334;0,15686275;0,019607844;;;;;;;;;;;6250,0347;44,978218;-46,568626;-54,166668;;;;;17,290554;52,020813;;;;;;;;;;;;;;;;;;;;2;2;;60304;56134;97;130;208;79;80;17;8;1;11;77;;;;;;;;;;;;;;;;;;;;;;;;;;;;;;;;;;;;;;;;;
203,23705;1,8823531;2,5490198;4,0980392;1,4901961;1,4901961;0,33333334;0,15686275;0,019607844;112,091;113,79663;113,362;113,4931;113,47998;100,94156;115,0802;113,84967;112,9588;112,26785;6463,061;43,671028;-50,490196;-54,166668;;;;;17,112301;52,020813;;;;;;;;;;479,39621;457,32339;462,83289;461,16272;461,32971;658,69727;441,49512;456,65598;468,01373;477,05072;2;2;;60304;56154;96;130;209;76;76;17;8;1;161;85;2;2;;41121;2998;2866;2899;2889;2890;4050;2771;2862;2930;2984;1484;1086;;;;;;;;;;;;;;;;;;;;;;;;;
203,246;1,8627452;2,5490198;4,0784316;1,4509804;1,4901961;0,33333334;0,15686275;0,019607844;;;;;;;;;;;6607,9634;42,799568;-50,490196;-54,166668;;;;;16,934048;52,020813;;;;;;;;;;;;;;;;;;;;2;2;;60304;56174;95;130;208;74;76;17;8;1;11;83;;;;;;;;;;;;;;;;;;;;;;;;;;;;;;;;;;;;;;;;;
203,2545;1,8431373;2,5490198;4,0784316;1,4117647;1,392157;0,33333334;0,15686275;0,019607844;;;;;;;;;;;6755,2749;41,928108;-55,392155;-54,166668;;;;;16,755795;52,020813;-0,22399199;;;;;;;;;;;;;;;;;;;2;2;;60304;56193;94;130;208;72;71;17;8;1;212;206;;;;;;;;;;;;;;;;;;;;;;;;;;;;;;-306;;;;;;;;;;;
203,26345;1,9607844;2,5490198;4,0784316;1,3725491;1,2745099;0,33333334;0,15686275;0,019607844;;;;;;;;;;;6905,0894;41,056648;-61,274506;-54,166668;;;;;17,825314;52,020813;-0,098820001;;;;;;;;;;;;;;;;;;;2;2;;60304;56213;100;130;208;70;65;17;8;1;74;121;;;;;;;;;;;;;;;;;;;;;;;;;;;;;;-135;;;;;;;;;;;
203,27245;1,8627452;2,5490198;4,0784316;1,3333334;1,2156863;0,33333334;0,15686275;0,019607844;;;;;;;;;;;7057,4985;40,185188;-64,215683;-54,166668;;;;;16,934048;52,020813;;;;;;;;;;;;;;;;;;;;2;2;;60304;56233;95;130;208;68;62;17;8;1;178;41;;;;;;;;;;;;;;;;;;;;;;;;;;;;;;;;;;;;;;;;;
203,2814;1,8627452;2,5490198;4,0784316;1,3137256;1,1764706;0,33333334;0,15686275;0,019607844;;;;;;;;;;;7134,7095;39,749458;-66,176468;-54,166668;;;;;16,934048;52,020813;-0,038796;;;;;;;;;;;;;;;;;;;2;2;;60304;56253;95;130;208;67;60;17;8;1;185;203;;;;;;;;;;;;;;;;;;;;;;;;;;;;;;-53;;;;;;;;;;;
203,29035;1,8823531;2,5490198;4,0784316;1,2941177;1,1764706;0,33333334;0,15686275;0,019607844;;;;;;;;;;;7212,6104;39,313728;-66,176468;-54,166668;;;;;17,112301;52,020813;-0,38064;;;;;;;;;;;;;;;;;;;2;2;;60304;56273;96;130;208;66;60;17;8;1;46;248;;;;;;;;;;;;;;;;;;;;;;;;;;;;;;-520;;;;;;;;;;;
203,29885;1,8823531;2,5490198;4,0784316;1,2745099;1,1176471;0,33333334;0,15686275;0,019607844;;;;;;;;;;;7291,2114;38,877998;-69,117645;-54,166668;;;;;17,112301;52,020813;;;;;;;;;;;;;;;;;;;;2;2;;60304;56292;96;130;208;65;57;17;8;1;11;255;;;;;;;;;;;;;;;;;;;;;;;;;;;;;3;;;;;;;;;;;;
203,3078;;;;;;;;;;;;;;;;;;;;;;;;;;;;;;;;;;;;;;;;;;;;;;;;;;;;;;;;;;;;;;;;;;;;;;;;;;;;;;;;;;;;;;;;;;;4;;;;;;;;;;;;
203,3159;1,8823531;2,5490198;4,0784316;1,2745099;1,0784314;0,33333334;0,15686275;0,019607844;;;;;;;;;;;7291,2114;38,877998;-71,07843;-54,166668;;;;;17,112301;52,020813;;;;;;;;;;;;;;;;;;;;2;2;;60304;56330;96;130;208;65;55;17;8;1;11;160;;;;;;;;;;;;;;;;;;;;;;;;;;;;;;;;;;;;;;;;;
203,32485;1,9019608;2,5490198;4,0784316;1,2745099;0,98039222;0,33333334;0,15686275;0,019607844;;;;;;;;;;;7291,2114;38,877998;-75,980392;-54,166668;;;;;17,290554;52,020813;;;;;;;;;;;;;;;;;;;;2;2;;60304;56350;97;130;208;65;50;17;8;1;10;160;;;;;;;;;;;;;;;;;;;;;;;;;;;;;;;;;;;;;;;;;
203,3338;1,9019608;2,5490198;4,0784316;1,2941177;0,82352942;0,33333334;0,15686275;0,019607844;;;;;;;;;;;7212,6104;39,313728;-83,823532;-54,166668;;;;;17,290554;52,020813;;;;;;;;;;;;;;;;;;;;2;2;;60304;56370;97;130;208;66;42;17;8;1;11;160;;;;;;;;;;;;;;;;;;;;;;;;;;;;;;;;;;;;;;;;;
203,34275;1,8823531;2,5490198;4,0784316;1,3137256;0,7647059;0,3137255;0,15686275;0,019607844;;;;;;;;;;;7134,7095;39,749458;-86,764709;-54,656864;;;;;17,112301;52,020813;;;;;;;;;;;;;;;;;;;;2;2;;60304;56390;96;130;208;67;39;16;8;1;11;160;;;;;;;;;;;;;;;;;;;;;;;;;;;;;;;;;;;;;;;;;
203,35175;1,8823531;2,5686276;4,0784316;1,3333334;0,68627453;0,33333334;0,15686275;0,019607844;;;;;;;;;;;7057,4985;40,185188;-90,686279;-54,166668;;;;;17,112301;52,420971;;;;;;;;;;;;;;;;;;;;2;2;;60304;56410;96;131;208;68;35;17;8;1;5;160;;;;;;;;;;;;;;;;;;;;;;;;;;;;;;;;;;;;;;;;;
203,3607;1,9019608;2,5686276;4,0784316;1,392157;0,70588237;0,33333334;0,15686275;0,019607844;;;;;;;;;;;6829,8623;41,492378;-89,705887;-54,166668;;;;;17,290554;52,420971;;;;;;;;;;;;;;;;;;;;2;2;;60304;56430;97;131;208;71;36;17;8;1;11;160;;;;;;;;;;;;;;;;;;;;;;;;;;;;;;;;;;;;;;;;;
203,36965;1,8823531;2,5490198;4,0784316;1,4313726;0,74509805;0,33333334;0,15686275;0,019607844;;;;;;;;;;;6681,3115;42,363838;-87,745102;-54,166668;;;;;17,112301;52,020813;;;;;;;;;;;;;;;;;;;;2;2;;60304;56450;96;130;208;73;38;17;8;1;11;160;;;;;;;;;;;;;;;;;;;;;;;;;;;;;;;;;;;;;;;;;
203,3786;1,9019608;2,5490198;4,0784316;1,4901961;0,72549021;0,33333334;0,15686275;0,019607844;;;;;;;;;;;6463,061;43,671028;-88,725494;-54,166668;;;;;17,290554;52,020813;;;;;;;;;;;;;;;;;;;;2;2;;60304;56470;97;130;208;76;37;17;8;1;11;160;;;;;;;;;;;;;;;;;;;;;;;;;;;;;;;;;;;;;;;;;
203,38755;1,9019608;2,5490198;4,0784316;1,5686275;0,68627453;0,33333334;0,15686275;0,019607844;;;;;;;;;;;6180,1426;45,413944;-90,686279;-54,166668;;;;;17,290554;52,020813;;;;;;;;;;;;;;;;;;;;2;2;;60304;56490;97;130;208;80;35;17;8;1;5;160;;;;;;;;;;;;;;;;;;;;;;;;;;;;;;;;;;;;;;;;;
203,39655;1,9019608;2,5490198;4,0784316;1,6274511;0,70588237;0,33333334;0,15686275;0,019607844;;;;;;;;;;;5973,6689;46,721138;-89,705887;-54,166668;;;;;17,290554;52,020813;;;;;;;;;;;;;;;;;;;;2;2;;60304;56510;97;130;208;83;36;17;8;1;11;160;;;;;;;;;;;;;;;;;;;;;;;;;;;;;;;;;;;;;;;;;
203,4055;1,9019608;2,5490198;4,0784316;1,7254902;0,70588237;0,33333334;0,15686275;0,019607844;;;;;;;;;;;5639,7144;48,899784;-89,705887;-54,166668;;;;;17,290554;52,020813;;;;;;;;;;;;;;;;;;;;2;2;;60304;56530;97;130;208;88;36;17;8;1;15;160;;;;;;;;;;;;;;;;;;;;;;;;;;;;;;;;;;;;;;;;;
203,41445;1,9019608;2,5490198;4,0784316;1,8235295;0,72549021;0,33333334;0,15686275;0,019607844;;;;;;;;;;;5317,5996;51,078434;-88,725494;-54,166668;;;;;17,290554;52,020813;;;;;;;;;;;;;;;;;;;;2;2;;60304;56550;97;130;208;93;37;17;8;1;11;160;;;;;;;;;;;;;;;;;;;;;;;;;;;;;;;;;;;;;;;;;
203,4234;1,9019608;2,5686276;4,0784316;1,9019608;0,66666669;0,33333334;0,15686275;0,019607844;112,15405;113,86298;113,34894;113,4931;113,4537;100,90561;114,95645;113,83643;112,84265;112,30585;5067,8262;52,821354;-91,666664;-54,166668;;;;;17,290554;52,420971;;;;;;;;;;478,55841;456,48914;462,99991;461,16272;461,66373;659,39069;442,99258;456,82281;469,51883;476,54825;2;2;;60304;56570;97;131;208;97;34;17;8;1;161;160;2;2;;41121;2993;2861;2900;2889;2892;4054;2780;2863;2939;2981;1681;1404;;;;;;;;;;;;;;;;;;;;;;;;;
203,43235;1,9019608;2,5490198;4,0784316;2,019608;0,58823532;0,33333334;0,15686275;0,019607844;;;;;;;;;;;4705,395;55,435738;-95,588234;-54,166668;;;;;17,290554;52,020813;;;;;;;;;;;;;;;;;;;;2;2;;60304;56590;97;130;208;103;30;17;8;1;11;160;;;;;;;;;;;;;;;;;;;;;;;;;;;;;;;;;;;;;;;;;
203,44135;1,9019608;2,5686276;4,0784316;2,137255;0,52941179;0,33333334;0,15686275;0,019607844;;;;;;;;;;;4356,5537;58,050114;-98,529411;-54,166668;;;;;17,290554;52,420971;;;;;;;;;;;;;;;;;;;;2;2;;60304;56610;97;131;208;109;27;17;8;1;10;160;;;;;;;;;;;;;;;;;;;;;;;;;;;;;;;;;;;;;;;;;
203,4503;1,9019608;2,5686276;4,0784316;2,2352941;0,4509804;0,33333334;0,15686275;0,019607844;;;;;;;;;;;4075,4424;60,22876;-102,45098;-54,166668;;;;;17,290554;52,420971;;;;;;;;;;;;;;;;;;;;2;2;;60304;56630;97;131;208;114;23;17;8;1;11;160;;;;;;;;;;;;;;;;;;;;;;;;;;;;;;;;;;;;;;;;;
203,45925;1,9019608;2,5686276;4,0784316;2,3529413;0,43137255;0,33333334;0,15686275;0,019607844;;;;;;;;;;;3748,7778;62,843143;-103,43137;-54,166668;;;;;17,290554;52,420971;;;;;;;;;;;;;;;;;;;;2;2;;60304;56650;97;131;208;120;22;17;8;1;11;160;;;;;;;;;;;;;;;;;;;;;;;;;;;;;;;;;;;;;;;;;
203,4682;1,9019608;2,5686276;4,0784316;2,4705882;0,43137255;0,33333334;0,15686275;0,019607844;;;;;;;;;;;3432,9414;65,45752;-103,43137;-54,166668;;;;;17,290554;52,420971;;;;;;;;;;;;;;;;;;;;2;2;;60304;56670;97;131;208;126;22;17;8;1;6;160;;;;;;;;;;;;;;;;;;;;;;;;;;;;;;;;;;;;;;;;;
203,47715;1,9019608;2,5686276;4,0784316;2,5686276;0,41176471;0,33333334;0,15686275;0,019607844;;;;;;;;;;;3177,4529;67,636169;-104,41177;-54,166668;;;;;17,290554;52,420971;;;;;;;;;;;;;;;;;;;;2;2;;60304;56690;97;131;208;131;21;17;8;1;11;160;;;;;;;;;;;;;;;;;;;;;;;;;;;;;;;;;;;;;;;;;
203,48615;1,9019608;2,5686276;4,0784316;2,6666667;0,43137255;0,3137255;0,15686275;0,019607844;;;;;;;;;;;2928,5464;69,814819;-103,43137;-54,656864;;;;;17,290554;52,420971;;;;;;;;;;;;;;;;;;;;2;2;;60304;56710;97;131;208;136;22;16;8;1;11;160;;;;;;;;;;;;;;;;;;;;;;;;;;;;;;;;;;;;;;;;;
203,49465;1,9019608;2,5686276;4,0784316;2,7647059;0,47058827;0,33333334;0,15686275;0,019607844;;;;;;;;;;;2685,8518;71,993469;-101,47059;-54,166668;;;;;17,290554;52,420971;;;;;;;;;0,092260003;;;;;;;;;;;2;2;;60304;56729;97;131;208;141;24;17;8;1;47;147;;;;;;;;;;;;;;;;;;;;;;;;;;;;;;;;;;;;;;659;;;
203,5036;1,9019608;2,5686276;4,0784316;2,8431373;0,52941179;0,33333334;0,15686275;0,019607844;;;;;;;;;;;2495,9431;73,736389;-98,529411;-54,166668;;;;;17,290554;52,420971;;;;;;;;;;;;;;;;;;;;2;2;;60304;56749;97;131;208;145;27;17;8;1;53;0;;;;;;;;;;;;;;;;;;;;;;;;;;;;;;;;;;;;;;;;;
203,5121;1,9019608;2,5686276;4,0784316;2,9019608;0,52941179;0,33333334;0,15686275;0,019607844;;;;;;;;;;;2355,8816;75,043579;-98,529411;-54,166668;;;;;17,290554;52,420971;;;;;;;;;;;;;;;;;;;;2;2;;60304;56768;97;131;208;148;27;17;8;1;11;1;;;;;;;;;;;;;;;;;;;;;;;;;;;;;;;;;;;;;;;;;
203,52105;1,9019608;2,5686276;4,0784316;2,9803922;0,52941179;0,33333334;0,15686275;0,019607844;;;;;;;;;;;2172,1743;76,786499;-98,529411;-54,166668;;;;;17,290554;52,420971;;;;;;;;;;;;;;;;;;;;2;2;;60304;56788;97;131;208;152;27;17;8;1;11;0;;;;;;;;;;;;;;;;;;;;;;;;;;;;;;;;;;;;;;;;;
203,53005;1,9019608;2,5686276;4,0784316;3;0,66666669;0,33333334;0,15686275;0,019607844;;;;;;;;;;;2126,7766;77,222229;-91,666664;-54,166668;;;;;17,290554;52,420971;;;;;;;;;;;;;;;;;;;;2;2;;60304;56808;97;131;208;153;34;17;8;1;11;0;;;;;;;;;;;;;;;;;;;;;;;;;;;;;;;;;;;;;;;;;
203,539;1,9019608;2,5686276;4,0784316;3,0392158;0,80392158;0,33333334;0,15686275;0,019607844;;;;;;;;;;;2036,5996;78,093689;-84,803925;-54,166668;;;;;17,290554;52,420971;;;;;;;;;;;;;;;;;;;;2;2;;60304;56828;97;131;208;155;41;17;8;1;5;255;;;;;;;;;;;;;;;;;;;;;;;;;;;;;;;;;;;;;;;;;
203,54795;1,9019608;2,5686276;4,0784316;3,0392158;0,70588237;0,33333334;0,15686275;0,019607844;;;;;;;;;;;2036,5996;78,093689;-89,705887;-54,166668;;;;;17,290554;52,420971;;;;;;;;;;;;;;;;;;;;2;2;;60304;56848;97;131;208;155;36;17;8;1;11;0;;;;;;;;;;;;;;;;;;;;;;;;;;;;;;;;;;;;;;;;;
203,5569;1,9019608;2,5686276;4,0784316;3,0392158;0,98039222;0,33333334;0,15686275;0,019607844;;;;;;;;;;;2036,5996;78,093689;-75,980392;-54,166668;;;;;17,290554;52,420971;;;;;;;;;;;;;;;;;;;;2;2;;60304;56868;97;131;208;155;50;17;8;1;15;254;;;;;;;;;;;;;;;;;;;;;;;;;;;;;;;;;;;;;;;;;
203,56585;1,9019608;2,5686276;4,0784316;3;0,68627453;0,33333334;0,15686275;0,019607844;;;;;;;;;;;2126,7766;77,222229;-90,686279;-54,166668;;;;;17,290554;52,420971;;;;;;;;;;;;;;;;;;;;2;2;;60304;56888;97;131;208;153;35;17;8;1;11;252;;;;;;;;;;;;;;;;;;;;;;;;;;;;;;;;;;;;;;;;;
203,57485;1,9019608;2,5686276;4,0784316;2,9411767;0,58823532;0,33333334;0,15686275;0,019607844;112,16669;114,0094;113,24445;113,51938;113,44061;100,91458;114,97018;113,80991;112,89423;112,21722;2263,6013;75,915039;-95,588234;-54,166668;;;;;17,290554;52,420971;;;;;;;;;;478,39087;454,65424;464,33646;460,82877;461,83072;659,21735;442,82617;457,15652;468,84985;477,72076;2;2;;60304;56908;97;131;208;150;30;17;8;1;161;251;2;2;;41121;2992;2850;2908;2887;2893;4053;2779;2865;2935;2988;1720;1056;;;;;;;;;;;;;;;;;;;;;;;;;
203,5838;1,8823531;2,5686276;4,0784316;2,8823531;0,66666669;0,33333334;0,15686275;0,019607844;;;;;;;;;;;2402,3469;74,607849;-91,666664;-54,166668;;;;;17,112301;52,420971;;;;;;;;;;;;;;;;;;;;2;2;;60304;56928;96;131;208;147;34;17;8;1;11;249;;;;;;;;;;;;;;;;;;;;;;;;;;;;;;;;;;;;;;;;;
203,59275;1,9019608;2,5686276;4,0784316;2,7843139;1;0,33333334;0,15686275;0,019607844;;;;;;;;;;;2638,0286;72,429199;-75;-54,166668;;;;;17,290554;52,420971;;;;;;;;;;;;;;;;;;;;2;2;;60304;56948;97;131;208;142;51;17;8;1;10;0;;;;;;;;;;;;;;;;;;;;;;;;;;;;;;;;;;;;;;;;;
203,60125;1,8823531;2,5686276;4,0784316;2,6666667;1,0196079;0,33333334;0,15686275;0,019607844;;;;;;;;;;;2928,5464;69,814819;-74,019608;-54,166668;;;;;17,112301;52,420971;;;;;;;;-0,58114004;;;;;;;;;;;;2;2;;60304;56967;96;131;208;136;52;17;8;1;77;201;;;;;;;;;;;;;;;;;;;;;;;;;;;;;;;;;;;;;-4151;;;;
203,61025;1,9019608;2,5686276;4,0588236;2,5490198;1,0784314;0,33333334;0,15686275;0,019607844;;;;;;;;;;;3228,011;67,200439;-71,07843;-54,166668;;;;;17,290554;52,420971;;;;;;;;-0,57722002;;;;;;;;;;;;2;2;;60304;56987;97;131;207;130;55;17;8;1;172;229;;;;;;;;;;;;;;;;;;;;;;;;;;;;;;;;;;;;;-4123;;;;
203,6192;1,9019608;2,5686276;4,0784316;2,4117649;1,3725491;0,33333334;0,15686275;0,019607844;;;;;;;;;;;3589,5569;64,15033;-56,372547;-54,166668;;;;;17,290554;52,420971;;;;;;;;-0,57722002;;;;;;;;;;;;2;2;;60304;57007;97;131;208;123;70;17;8;1;202;229;;;;;;;;;;;;;;;;;;;;;;;;;;;;;;;;;;;;;-4123;;;;
203,6277;1,8823531;2,5686276;4,0588236;2,2745099;1,4705883;0,33333334;0,15686275;0,019607844;;;;;;;;;;;3965,3;61,100224;-51,470585;-54,166668;;;;;17,112301;52,420971;;;;;;;;;;;;;;;;;;;;2;2;;60304;57026;96;131;207;116;75;17;8;1;10;239;;;;;;;;;;;;;;;;;;;;;;;;;;;;;;;;;;;;;;;;;
203,63665;1,8823531;2,5686276;4,0588236;2,1176472;1,3333334;0,3137255;0,15686275;0,019607844;;;;;;;;;;;4413,7993;57,614384;-58,333332;-54,656864;;;;;17,112301;52,420971;;;;;;;;;;;;;;;;;;;;2;2;;60304;57046;96;131;207;108;68;16;8;1;11;4;;;;;;;;;;;;;;;;;;;;;;;;;;;;;;;;;;;;;;;;;
