,timestamp_s,timestamp_ms,imu1_accel_x,imu1_accel_y,imu1_accel_z,imu1_gyro_x,imu1_gyro_y,imu1_gyro_z,imu1_mag_x,imu1_mag_y,imu1_mag_z,imu2_accel_x,imu2_accel_y,imu2_accel_z,imu2_gyro_x,imu2_gyro_y,imu2_gyro_z,imu2_mag_x,imu2_mag_y,imu2_mag_z,high_g_accel_x,high_g_accel_y,high_g_accel_z,baro1_temp,baro1_pres,baro2_temp,baro2_pres,gps_lat,gps_long,gps_alt,battery_voltage,pyro_cont,heading,vtg,pos_x,pos_y,pos_z,vel_x,vel_y,vel_z,q_x,q_y,q_z,q_w,state,baro_pres_avg,gps_lat_mod,gps_long_mod,imu1_accel_x_real,imu1_accel_y_real,imu1_accel_z_real,imu2_accel_x_real,imu2_accel_y_real,imu2_accel_z_real,imu1_gyro_x_real,imu1_gyro_y_real,imu1_gyro_z_real,imu2_gyro_x_real,imu2_gyro_y_real,imu2_gyro_z_real,imu1_mag_x_real,imu1_mag_y_real,imu1_mag_z_real,imu2_mag_x_real,imu2_mag_y_real,imu2_mag_z_real,imu_accel_x_avg,imu_accel_y_avg,imu_accel_z_avg,imu_gyro_x_avg,imu_gyro_y_avg,imu_gyro_z_avg,imu_mag_x_avg,imu_mag_y_avg,imu_mag_z_avg,high_g_accel_x_real,high_g_accel_y_real,high_g_accel_z_real,baro_temp_avg,baro_height
147215,15565471,0,-64,-1388,-56,17,-96,48,175,2659,-726,-39,-1377,4,94,0,-41,278,2528,-365,352,-16,288,31.16,1.0098100172711573,35.93,1.0206563039723662,3904.611572265625,-7552.6083984375,32.5,8.140705108642578,0,0.0,0.0,0.0,0.0,21.09454518124673,0.0,0.0,-1.6452346080651752,0.0,0.0,0.0,0.0,13,1.0152331606217617,39.07685953776042,-75.876806640625,-0.4594219392,-9.9637133064,-0.40199419680000004,-0.2799602442,-9.884750160600001,0.0287138712,0.0207693519875,-0.1172857524,0.0586428762,0.114842299225,0.0,-0.0500907900875,0.1015,1.54222,-0.42108,0.16124,1.46624,-0.2117,-0.36969109170000003,-9.924231733500001,-0.1866401628,0.06780582560625,-0.0586428762,0.004276043056249998,0.13137,1.50423,-0.31639,10.35584,-0.47072,8.47296,33.545,-198.94552068991072
147216,15565577,0,-60,-1387,-56,9,-100,45,175,2659,-726,-43,-1372,6,81,0,-36,228,2531,-383,400,64,272,31.16,1.0100863557858375,35.93,1.0205477424130274,3904.611572265625,-7552.6083984375,32.5,8.146798133850098,0,0.0,0.0,0.0,0.0,21.361909859328502,0.0,0.0,-1.4909189443888238,0.0,0.0,0.0,0.0,13,1.0153170490994325,39.07685953776042,-75.876806640625,-0.430708068,-9.9565348386,-0.40199419680000004,-0.3086741154,-9.848857821600001,0.0430708068,0.0109955392875,-0.12217265875000001,0.0549776964375,0.09895985358750001,0.0,-0.04398215715,0.1015,1.54222,-0.42108,0.13224,1.46798,-0.22214,-0.36969109170000003,-9.9026963301,-0.17946169500000003,0.0549776964375,-0.061086329375000005,0.005497769643750001,0.11687,1.5051,-0.32161,11.768,1.88288,8.00224,33.545,-199.6780561738211
147217,15565682,0,-61,-1383,-49,12,-97,45,147,2642,-733,-44,-1374,5,86,0,-39,228,2531,-383,320,112,160,31.16,1.010046878855169,35.93,1.0205477424130274,3904.611572265625,-7552.6083984375,32.5,8.145689964294434,0,0.0,0.0,0.0,0.0,21.44899539243577,0.0,0.0,-1.445441280217673,0.0,0.0,0.0,0.0,13,1.0152973106340983,39.07685953776042,-75.876806640625,-0.43788653580000003,-9.9278209674,-0.35174492220000003,-0.31585258320000004,-9.8632147572,0.035892339,0.01466071905,-0.11850747898750001,0.0549776964375,0.105068486525,0.0,-0.047647336912500005,0.08526,1.53236,-0.42514,0.13224,1.46798,-0.22214,-0.3768695595,-9.8955178623,-0.15792629160000002,0.0598646027875,-0.059253739493750006,0.0036651797624999982,0.10875,1.50017,-0.32364000000000004,9.4144,3.29504,4.7072,33.545,-199.50570136472004
147218,15565788,0,-66,-1378,-54,3,-91,42,147,2642,-733,-44,-1373,4,75,0,-44,244,2544,-352,352,-32,208,31.16,1.0099185788304958,35.94,1.0205378731803605,3904.611572265625,-7552.6083984375,32.5,8.145135879516602,0,0.0,0.0,0.0,0.0,21.47863193447385,0.0,0.0,-1.424634336606125,0.0,0.0,0.0,0.0,13,1.0152282260054282,39.07685953776042,-75.876806640625,-0.4737788748,-9.8919286284,-0.3876372612,-0.31585258320000004,-9.8560362894,0.0287138712,0.0036651797625,-0.1111771194625,0.051312516675,0.09162949406250001,0.0,-0.05375596985,0.08526,1.53236,-0.42514,0.14152,1.47552,-0.20416,-0.39481572900000006,-9.8739824589,-0.179461695,0.047647336912500005,-0.05558855973125,-0.0012217265874999994,0.11339,1.50394,-0.31465,10.35584,-0.94144,6.11936,33.55,-198.90242812371736
147219,15565893,0,-65,-1385,-51,7,-92,43,160,2640,-765,-39,-1375,3,90,0,-43,244,2544,-352,272,128,224,31.16,1.0099975326918331,35.93,1.0206168270416975,3904.611572265625,-7552.6083984375,32.5,8.140151023864746,0,0.0,0.0,0.0,0.0,21.345180761107105,0.0,0.0,-1.4975780941989043,0.0,0.0,0.0,0.0,13,1.0153071798667654,39.07685953776042,-75.876806640625,-0.466600407,-9.942177903000001,-0.36610185780000004,-0.2799602442,-9.870393225,0.0215354034,0.008552086112500001,-0.11239884605,0.0525342432625,0.109955392875,0.0,-0.0525342432625,0.0928,1.5312000000000001,-0.4437,0.14152,1.47552,-0.20416,-0.3732803256,-9.906285564000001,-0.17228322720000003,0.05925373949375,-0.056199423025,0.0,0.11716,1.50336,-0.32393,8.00224,3.76576,6.59008,33.545,-199.59187926780234
147220,15565998,0,-68,-1382,-55,0,-92,49,160,2640,-765,-48,-1373,4,97,0,-43,257,2564,-392,368,80,288,31.16,1.0099185788304958,35.93,1.0206563039723662,3904.611572265625,-7552.6083984375,32.5,8.167291641235352,0,0.0,0.0,0.0,0.0,21.170540134372686,0.0,0.0,-1.5893247292521024,0.0,0.0,0.0,0.0,13,1.015287441401431,39.07685953776042,-75.876806640625,-0.48813581040000004,-9.9206424996,-0.394815729,-0.3445664544,-9.8560362894,0.0287138712,0.0,-0.11239884605,0.059864602787500006,0.11850747898750001,0.0,-0.0525342432625,0.0928,1.5312000000000001,-0.4437,0.14906,1.48712,-0.22736,-0.4163511324,-9.8883393945,-0.1830509289,0.059253739493750006,-0.056199423025,0.0036651797625000017,0.12093,1.50916,-0.33553,10.82656,2.3536,8.47296,33.545,-199.4195224645586
147221,15566104,0,-66,-1380,-50,2,-103,41,144,2657,-757,-42,-1374,3,96,0,-44,257,2564,-392,400,32,224,31.16,1.009859363434493,35.93,1.0205477424130274,3904.611572265625,-7552.6083984375,32.5,8.145135879516602,0,0.0,0.0,0.0,0.0,21.33131185027485,0.0,0.0,-1.4864078030513372,0.0,0.0,0.0,0.0,13,1.0152035529237602,39.07685953776042,-75.876806640625,-0.4737788748,-9.906285564000001,-0.35892339,-0.3014956476,-9.8632147572,0.0215354034,0.002443453175,-0.1258378385125,0.0500907900875,0.1172857524,0.0,-0.05375596985,0.08352,1.54106,-0.43906,0.14906,1.48712,-0.22736,-0.3876372612,-9.8847501606,-0.1686939933,0.0598646027875,-0.06291891925625,-0.0018325898812499991,0.11629,1.51409,-0.33321,11.768,0.94144,6.59008,33.545,-198.68696155306705
147222,15566209,0,-68,-1384,-52,10,-94,42,144,2657,-757,-44,-1376,4,100,0,-42,258,2552,-382,352,32,208,31.16,1.0099185788304958,35.94,1.020587219343696,3904.611572265625,-7552.6083984375,32.5,8.141258239746094,0,0.0,0.0,0.0,0.0,21.235076350242384,0.0,0.0,-1.533803976655555,0.0,0.0,0.0,0.0,13,1.015252899087096,39.07685953776042,-75.876806640625,-0.48813581040000004,-9.9349994352,-0.3732803256,-0.31585258320000004,-9.8775716928,0.0287138712,0.012217265875000001,-0.114842299225,0.051312516675,0.12217265875000001,0.0,-0.051312516675,0.08352,1.54106,-0.43906,0.14964,1.48016,-0.22156,-0.40199419680000004,-9.906285564000001,-0.1722832272,0.06719496231250001,-0.0574211496125,0.0,0.11657999999999999,1.51061,-0.33031,10.35584,0.94144,6.11936,33.55,-199.11788846167974
147223,15566314,0,-59,-1387,-50,8,-80,49,142,2659,-765,-46,-1374,5,82,0,-38,258,2552,-382,304,96,352,31.16,1.009977794226499,35.93,1.020774734764372,3904.611572265625,-7552.6083984375,32.5,8.14901351928711,0,0.0,0.0,0.0,0.0,21.146444384472005,0.0,0.0,-1.5775235135702337,0.0,0.0,0.0,0.0,13,1.0153762644954356,39.07685953776042,-75.876806640625,-0.4235296002,-9.9565348386,-0.35892339,-0.3302095188,-9.8632147572,0.035892339,0.0097738127,-0.09773812700000001,0.059864602787500006,0.100181580175,0.0,-0.046425610325000005,0.08236,1.54222,-0.4437,0.14964,1.48016,-0.22156,-0.3768695595,-9.909874797899999,-0.1615155255,0.0549776964375,-0.048869063500000004,0.00671949623125,0.11599999999999999,1.51119,-0.33263,8.94368,2.82432,10.35584,33.545,-200.19509667288858
147224,15566420,0,-68,-1383,-53,6,-98,45,142,2659,-765,-36,-1370,3,92,0,-38,218,2520,-360,384,-16,256,31.16,1.0098791018998272,35.93,1.0206661732050333,3904.611572265625,-7552.6083984375,32.5,8.146798133850098,0,0.0,0.0,0.0,0.0,21.143958566845825,0.0,0.0,-1.570726163836792,0.0,0.0,0.0,0.0,13,1.0152726375524304,39.07685953776042,-75.876806640625,-0.48813581040000004,-9.9278209674,-0.3804587934,-0.2584248408,-9.834500886,0.0215354034,0.007330359525,-0.11972920557500001,0.0549776964375,0.11239884605,0.0,-0.046425610325000005,0.08236,1.54222,-0.4437,0.12644,1.4616,-0.2088,-0.3732803256,-9.881160926700002,-0.179461695,0.0598646027875,-0.059864602787500006,0.004276043056249998,0.10439999999999999,1.50191,-0.32625,11.29728,-0.47072,7.53152,33.545,-199.29025224474762
147225,15566525,0,-64,-1383,-53,1,-107,45,120,2637,-825,-42,-1372,5,91,0,-44,218,2520,-360,336,96,144,31.16,1.0097014557118185,35.92,1.020646434739699,3904.611572265625,-7552.6083984375,32.5,8.14458179473877,0,0.0,0.0,0.0,0.0,21.30309928118814,0.0,0.0,-1.47157534793749,0.0,0.0,0.0,0.0,13,1.0151739452257589,39.07685953776042,-75.876806640625,-0.4594219392,-9.9278209674,-0.3804587934,-0.3014956476,-9.848857821600001,0.035892339,0.0012217265875,-0.13072474486250002,0.0549776964375,0.1111771194625,0.0,-0.05375596985,0.0696,1.52946,-0.4785,0.12644,1.4616,-0.2088,-0.3804587934,-9.8883393945,-0.1722832272,0.056199423025,-0.06536237243125001,0.0006108632937499997,0.09802,1.49553,-0.34365,9.88512,2.82432,4.23648,33.54,-198.42839344068165
147226,15566631,0,-58,-1389,-54,-3,-84,40,140,2647,-759,-42,-1373,3,81,0,-41,259,2564,-381,352,112,112,31.16,1.0097705403404886,35.94,1.0204786577843572,3904.611572265625,-7552.6083984375,32.5,8.145689964294434,0,0.0,0.0,0.0,0.0,21.45795883334857,0.0,0.0,-1.3826685111723718,0.0,0.0,0.0,0.0,13,1.015124599062423,39.07685953776042,-75.876806640625,-0.4163511324,-9.9708917742,-0.3876372612,-0.3014956476,-9.8560362894,0.0215354034,-0.0036651797625,-0.10262503335,0.048869063500000004,0.09895985358750001,0.0,-0.0500907900875,0.0812,1.53526,-0.44022,0.15022,1.48712,-0.22098,-0.35892339,-9.9134640318,-0.18305092890000002,0.047647336912500005,-0.051312516675,-0.0006108632937499997,0.11571,1.51119,-0.3306,10.35584,3.29504,3.29504,33.55,-197.99742663949604
147227,15566736,0,-62,-1387,-54,8,-100,36,140,2647,-759,-46,-1374,3,87,0,-42,259,2564,-381,352,32,272,31.16,1.010106094251172,35.93,1.0206859116703677,3904.611572265625,-7552.6083984375,32.5,8.145135879516602,0,0.0,0.0,0.0,0.0,21.125754688407845,0.0,0.0,-1.569100065148776,0.0,0.0,0.0,0.0,13,1.0153960029607698,39.07685953776042,-75.876806640625,-0.4450650036,-9.9565348386,-0.3876372612,-0.3302095188,-9.8632147572,0.0215354034,0.0097738127,-0.12217265875000001,0.04398215715,0.1062902131125,0.0,-0.051312516675,0.0812,1.53526,-0.44022,0.15022,1.48712,-0.22098,-0.38763726119999997,-9.909874797899999,-0.18305092890000002,0.05803201290625,-0.061086329375000005,-0.0036651797625000017,0.11571,1.51119,-0.3306,10.35584,0.94144,8.00224,33.545,-200.3674355303973
147228,15566841,0,-61,-1384,-56,18,-85,42,146,2659,-791,-48,-1369,5,88,0,-40,256,2548,-385,352,128,208,31.16,1.0099975326918331,35.93,1.020597088576363,3904.611572265625,-7552.6083984375,32.5,8.145135879516602,0,0.0,0.0,0.0,0.0,20.974704364107566,0.0,0.0,-1.642639522297602,0.0,0.0,0.0,0.0,13,1.0152973106340981,39.07685953776042,-75.876806640625,-0.43788653580000003,-9.9349994352,-0.40199419680000004,-0.3445664544,-9.8273224182,0.035892339,0.021991078575,-0.1038467599375,0.051312516675,0.1075119397,0.0,-0.048869063500000004,0.08468,1.54222,-0.45878,0.14848,1.47784,-0.2233,-0.3912264951,-9.8811609267,-0.18305092890000002,0.0647515091375,-0.05192337996875,0.0012217265874999994,0.11658,1.51003,-0.34104,10.35584,3.76576,6.11936,33.545,-199.50570136472004
147229,15566947,0,-63,-1379,-52,10,-101,48,146,2659,-791,-47,-1368,4,79,0,-35,265,2540,-362,336,64,288,31.16,1.009859363434493,35.93,1.0206168270416975,3904.611572265625,-7552.6083984375,32.5,8.157876014709473,0,0.0,0.0,0.0,0.0,21.13881903184587,0.0,0.0,-1.5385797496079183,0.0,0.0,0.0,0.0,13,1.0152380952380953,39.07685953776042,-75.876806640625,-0.45224347140000004,-9.8991070962,-0.3732803256,-0.3373879866,-9.8201439504,0.0287138712,0.012217265875000001,-0.12339438533750001,0.0586428762,0.09651640041250001,0.0,-0.0427604305625,0.08468,1.54222,-0.45878,0.1537,1.4732,-0.20996,-0.39481572900000006,-9.8596255233,-0.1722832272,0.05436683314375,-0.061697192668750005,0.00794122281875,0.11919,1.5077099999999999,-0.33437,9.88512,1.88288,8.47296,33.545,-198.98861300680574
147230,15567052,0,-66,-1385,-51,8,-98,54,151,2645,-761,-41,-1374,5,91,0,-37,265,2540,-362,320,96,288,31.16,1.0099975326918331,35.92,1.0207549962990377,3904.611572265625,-7552.6083984375,32.5,8.162306785583496,0,0.0,0.0,0.0,0.0,20.974349022344494,0.0,0.0,-1.6228772634232582,0.0,0.0,0.0,0.0,13,1.0153762644954354,39.07685953776042,-75.876806640625,-0.4737788748,-9.942177903000001,-0.36610185780000004,-0.2943171798,-9.8632147572,0.035892339,0.0097738127,-0.11972920557500001,0.06597323572500001,0.1111771194625,0.0,-0.0452038837375,0.08758,1.5341,-0.44138,0.1537,1.4732,-0.20996,-0.3840480273,-9.9026963301,-0.16510475940000002,0.06047546608125,-0.059864602787500006,0.010384675993750005,0.12064,1.50365,-0.32567,9.4144,2.82432,8.47296,33.54,-200.19509667288858
147231,15567158,0,-64,-1383,-54,6,-89,41,151,2645,-761,-42,-1371,6,88,0,-44,233,2514,-359,416,-16,352,31.17,1.0097804095731555,35.93,1.020597088576363,3904.611572265625,-7552.6083984375,32.5,8.14901351928711,0,0.0,0.0,0.0,0.0,21.154542038016096,0.0,0.0,-1.509683356916196,0.0,0.0,0.0,0.0,13,1.0151887490747593,39.07685953776042,-75.876806640625,-0.4594219392,-9.9278209674,-0.3876372612,-0.3014956476,-9.8416793538,0.0430708068,0.007330359525,-0.1087336662875,0.0500907900875,0.1075119397,0.0,-0.05375596985,0.08758,1.5341,-0.44138,0.13514,1.45812,-0.20822,-0.3804587934,-9.8847501606,-0.1722832272,0.0574211496125,-0.05436683314375,-0.0018325898812499991,0.11136000000000001,1.49611,-0.3248,12.23872,-0.47072,10.35584,33.55,-198.56486069235018
147232,15567263,0,-71,-1386,-53,5,-89,42,153,2635,-769,-43,-1375,4,86,0,-47,233,2514,-359,272,112,288,31.16,1.0098100172711573,35.92,1.0206563039723662,3904.611572265625,-7552.6083984375,32.5,8.157876014709473,0,0.0,0.0,0.0,0.0,21.2760126105932,0.0,0.0,-1.437588714782374,0.0,0.0,0.0,0.0,13,1.0152331606217617,39.07685953776042,-75.876806640625,-0.5096712138,-9.9493563708,-0.3804587934,-0.3086741154,-9.870393225,0.0287138712,0.0061086329375000005,-0.1087336662875,0.051312516675,0.105068486525,0.0,-0.0574211496125,0.08874,1.5283,-0.44602,0.13514,1.45812,-0.20822,-0.4091726646,-9.9098747979,-0.1758724611,0.05558855973125,-0.05436683314375,-0.0030543164687499985,0.11194000000000001,1.49321,-0.32712,8.00224,3.29504,8.47296,33.54,-198.94552068991072
147233,15567368,0,-61,-1383,-49,7,-104,41,153,2635,-769,-39,-1372,4,98,0,-37,256,2531,-388,352,64,320,31.16,1.0098791018998272,35.93,1.0207253886010363,3904.611572265625,-7552.6083984375,32.5,8.154552459716797,0,0.0,0.0,0.0,0.0,20.98815129596456,0.0,0.0,-1.5948343972456485,0.0,0.0,0.0,0.0,13,1.0153022452504317,39.07685953776042,-75.876806640625,-0.43788653580000003,-9.9278209674,-0.35174492220000003,-0.2799602442,-9.848857821600001,0.0287138712,0.008552086112500001,-0.1270595651,0.0500907900875,0.11972920557500001,0.0,-0.0452038837375,0.08874,1.5283,-0.44602,0.14848,1.46798,-0.22504,-0.35892339,-9.8883393945,-0.1615155255,0.06414064584375001,-0.06352978255,0.0024434531750000023,0.11861,1.49814,-0.33553,10.35584,1.88288,9.4144,33.545,-199.5487904408922
147234,15567474,0,-68,-1385,-60,17,-93,55,164,2626,-763,-42,-1369,5,80,0,-45,256,2531,-388,384,-16,272,31.17,1.0100074019245004,35.93,1.020705650135702,3904.611572265625,-7552.6083984375,32.5,8.142366409301758,0,0.0,0.0,0.0,0.0,21.099984822307068,0.0,0.0,-1.5254130997474598,0.0,0.0,0.0,0.0,13,1.0153565260301012,39.07685953776042,-75.876806640625,-0.48813581040000004,-9.942177903000001,-0.430708068,-0.3014956476,-9.8273224182,0.035892339,0.0207693519875,-0.1136205726375,0.06719496231250001,0.09773812700000001,0.0,-0.0549776964375,0.09512,1.52308,-0.44254,0.14848,1.46798,-0.22504,-0.39481572900000006,-9.8847501606,-0.1974078645,0.059253739493750006,-0.05681028631875,0.006108632937500004,0.12179999999999999,1.49553,-0.33379,11.29728,-0.47072,8.00224,33.55,-200.02998404540614
147235,15567579,0,-66,-1380,-49,14,-89,46,164,2626,-763,-39,-1373,5,93,0,-38,247,2547,-382,368,80,240,31.17,1.0097902788058228,35.93,1.0206859116703677,3904.611572265625,-7552.6083984375,32.5,8.153444290161133,0,0.0,0.0,0.0,0.0,21.242357043198744,0.0,0.0,-1.4448182904572393,0.0,0.0,0.0,0.0,13,1.0152380952380953,39.07685953776042,-75.876806640625,-0.4737788748,-9.906285564000001,-0.35174492220000003,-0.2799602442,-9.8560362894,0.035892339,0.017104172225000002,-0.1087336662875,0.056199423025,0.1136205726375,0.0,-0.046425610325000005,0.09512,1.52308,-0.44254,0.14326,1.47726,-0.22156,-0.3768695595,-9.881160926700002,-0.15792629160000002,0.06536237243125,-0.05436683314375,0.004886906349999998,0.11918999999999999,1.50017,-0.33205,10.82656,2.3536,7.0608,33.55,-198.99580924133653
147236,15567685,0,-65,-1384,-45,18,-97,45,155,2626,-746,-43,-1370,5,84,0,-45,247,2547,-382,400,96,192,31.16,1.0099185788304958,35.93,1.0206859116703677,3904.611572265625,-7552.6083984375,32.5,8.14458179473877,0,0.0,0.0,0.0,0.0,21.134816558604488,0.0,0.0,-1.505214440456798,0.0,0.0,0.0,0.0,13,1.0153022452504317,39.07685953776042,-75.876806640625,-0.466600407,-9.9349994352,-0.323031051,-0.3086741154,-9.834500886,0.035892339,0.021991078575,-0.11850747898750001,0.0549776964375,0.10262503335,0.0,-0.0549776964375,0.0899,1.52308,-0.43268,0.14326,1.47726,-0.22156,-0.38763726119999997,-9.8847501606,-0.143569356,0.062308055962500004,-0.059253739493750006,0.0,0.11657999999999999,1.50017,-0.32712,11.768,2.82432,5.64864,33.545,-199.5487904408922
147237,15567790,0,-64,-1380,-57,8,-89,41,155,2626,-746,-42,-1370,5,89,0,-42,249,2538,-361,336,160,272,31.16,1.009859363434493,35.93,1.0207352578337034,3904.611572265625,-7552.6083984375,32.5,8.153444290161133,0,0.0,0.0,0.0,0.0,21.1064715946083,0.0,0.0,-1.518683519430897,0.0,0.0,0.0,0.0,13,1.0152973106340983,39.07685953776042,-75.876806640625,-0.4594219392,-9.906285564000001,-0.4091726646,-0.3014956476,-9.834500886,0.035892339,0.0097738127,-0.1087336662875,0.0500907900875,0.1087336662875,0.0,-0.051312516675,0.0899,1.52308,-0.43268,0.14442,1.47204,-0.20938,-0.3804587934,-9.870393225,-0.1866401628,0.05925373949375,-0.05436683314375,-0.0006108632937499997,0.11715999999999999,1.49756,-0.32103000000000004,9.88512,4.7072,8.00224,33.545,-199.50570136472004
147238,15567895,0,-61,-1380,-61,7,-94,44,161,2637,-722,-45,-1374,4,86,0,-34,249,2538,-361,288,80,288,31.15,1.009849494201826,35.93,1.020597088576363,3904.611572265625,-7552.6083984375,32.5,8.147905349731445,0,0.0,0.0,0.0,0.0,21.1950614452393,0.0,0.0,-1.4635616490668517,0.0,0.0,0.0,0.0,13,1.0152232913890944,39.07685953776042,-75.876806640625,-0.43788653580000003,-9.906285564000001,-0.43788653580000003,-0.323031051,-9.8632147572,0.0287138712,0.008552086112500001,-0.114842299225,0.05375596985,0.105068486525,0.0,-0.041538703975,0.09338,1.52946,-0.41876,0.14442,1.47204,-0.20938,-0.3804587934,-9.8847501606,-0.2045863323,0.05681028631875,-0.0574211496125,0.0061086329375000005,0.1189,1.50075,-0.31407,8.47296,2.3536,8.47296,33.54,-198.852143321903
147239,15568001,0,-64,-1387,-50,3,-102,48,161,2637,-722,-50,-1373,3,90,0,-41,245,2529,-391,224,32,320,31.16,1.0098791018998272,35.92,1.0208043424623736,3904.611572265625,-7552.6083984375,32.5,8.145135879516602,0,0.0,0.0,0.0,0.0,21.58389150229497,0.0,0.0,-1.251010155841516,0.0,0.0,0.0,0.0,13,1.0153417221811005,39.07685953776042,-75.876806640625,-0.4594219392,-9.9565348386,-0.35892339,-0.35892339,-9.8560362894,0.0215354034,0.0036651797625,-0.12461611192500001,0.0586428762,0.109955392875,0.0,-0.0500907900875,0.09338,1.52946,-0.41876,0.1421,1.46682,-0.22678,-0.4091726646,-9.906285564000001,-0.1686939933,0.05681028631875,-0.062308055962500004,0.004276043056249998,0.11774000000000001,1.49814,-0.32277,6.59008,0.94144,9.4144,33.54,-199.89349407687945
147240,15568106,0,-62,-1389,-56,15,-94,48,145,2653,-748,-43,-1375,5,83,0,-43,245,2529,-391,304,96,256,31.16,1.0099284480631632,35.92,1.0207549962990377,3904.611572265625,-7552.6083984375,32.5,8.137381553649902,0,0.0,0.0,0.0,0.0,20.955223057496568,0.0,0.0,-1.6078827545983472,0.0,0.0,0.0,0.0,13,1.0153417221811005,39.07685953776042,-75.876806640625,-0.4450650036,-9.9708917742,-0.40199419680000004,-0.3086741154,-9.870393225,0.035892339,0.0183258988125,-0.114842299225,0.0586428762,0.1014033067625,0.0,-0.0525342432625,0.0841,1.53874,-0.43384,0.1421,1.46682,-0.22678,-0.3768695595,-9.9206424996,-0.18305092890000002,0.059864602787500006,-0.0574211496125,0.0030543164687499985,0.1131,1.50278,-0.33031,8.94368,2.82432,7.53152,33.54,-199.89349407687945
147241,15568212,0,-61,-1390,-53,6,-96,50,145,2653,-748,-44,-1375,4,81,0,-44,258,2543,-355,336,128,256,31.16,1.0098791018998272,35.93,1.0206859116703677,3904.611572265625,-7552.6083984375,32.5,8.17116928100586,0,0.0,0.0,0.0,0.0,20.91915922196725,0.0,0.0,-1.6157176131525872,0.0,0.0,0.0,0.0,13,1.0152825067850975,39.07685953776042,-75.876806640625,-0.43788653580000003,-9.978070242000001,-0.3804587934,-0.31585258320000004,-9.870393225,0.0287138712,0.007330359525,-0.1172857524,0.061086329375000005,0.09895985358750001,0.0,-0.05375596985,0.0841,1.53874,-0.43384,0.14964,1.47494,-0.2059,-0.3768695595,-9.924231733500001,-0.1758724611,0.05314510655625,-0.0586428762,0.0036651797625000017,0.11687,1.50684,-0.31987,9.88512,3.76576,7.53152,33.545,-199.37643264056933
147242,15568317,0,-62,-1385,-49,16,-97,41,146,2635,-727,-42,-1372,4,86,0,-37,258,2543,-355,320,96,176,31.18,1.0098198865038244,35.92,1.020587219343696,3904.611572265625,-7552.6083984375,32.5,8.17116928100586,0,0.0,0.0,0.0,0.0,21.332727915409198,0.0,0.0,-1.376843737728263,0.0,0.0,0.0,0.0,13,1.0152035529237602,39.07685953776042,-75.876806640625,-0.4450650036,-9.942177903000001,-0.35174492220000003,-0.3014956476,-9.848857821600001,0.0287138712,0.0195476254,-0.11850747898750001,0.0500907900875,0.105068486525,0.0,-0.0452038837375,0.08468,1.5283,-0.42166,0.14964,1.47494,-0.2059,-0.3732803256,-9.8955178623,-0.1615155255,0.062308055962500004,-0.059253739493750006,0.0024434531750000023,0.11716,1.50162,-0.31378,9.4144,2.82432,5.17792,33.55,-198.70133419685484
147243,15568422,0,-62,-1386,-53,1,-87,44,146,2635,-727,-45,-1375,3,77,0,-45,275,2567,-370,384,32,208,31.16,1.0098791018998272,35.91,1.020833950160375,3904.611572265625,-7552.6083984375,32.5,8.155659675598145,0,0.0,0.0,0.0,0.0,21.995074933571573,0.0,0.0,-1.0079674348251908,0.0,0.0,0.0,0.0,13,1.015356526030101,39.07685953776042,-75.876806640625,-0.4450650036,-9.9493563708,-0.3804587934,-0.323031051,-9.870393225,0.0215354034,0.0012217265875,-0.1062902131125,0.05375596985,0.09407294723750001,0.0,-0.0549776964375,0.08468,1.5283,-0.42166,0.1595,1.48886,-0.2146,-0.3840480273,-9.9098747979,-0.179461695,0.047647336912500005,-0.05314510655625,-0.0006108632937499997,0.12209,1.50858,-0.31813,11.29728,0.94144,6.11936,33.535,-200.02275382773385
147244,15568528,0,-63,-1390,-52,12,-87,36,183,2662,-726,-44,-1365,5,82,0,-39,258,2567,-396,272,80,304,31.17,1.0098889711324943,35.92,1.0206563039723662,3904.611572265625,-7552.6083984375,32.5,8.14292049407959,0,0.0,0.0,0.0,0.0,21.20462848767544,0.0,0.0,-1.4619885289358303,0.0,0.0,0.0,0.0,13,1.0152726375524304,39.07685953776042,-75.876806640625,-0.45224347140000004,-9.978070242000001,-0.3732803256,-0.31585258320000004,-9.798608547,0.035892339,0.01466071905,-0.1062902131125,0.04398215715,0.100181580175,0.0,-0.047647336912500005,0.10614,1.54396,-0.42108,0.14964,1.48886,-0.22968,-0.38404802730000004,-9.8883393945,-0.1686939933,0.0574211496125,-0.05314510655625,-0.0018325898812500026,0.12789,1.51641,-0.32538,8.00224,2.3536,8.94368,33.545,-199.2974583915139
147245,15568633,0,-63,-1383,-56,14,-87,45,171,2647,-740,-44,-1376,5,74,0,-41,258,2567,-396,368,48,176,31.16,1.0097606711078213,35.91,1.0206760424377004,3904.611572265625,-7552.6083984375,32.5,8.17116928100586,0,0.0,0.0,0.0,0.0,21.157937807913232,0.0,0.0,-1.485732195263318,0.0,0.0,0.0,0.0,13,1.0152183567727608,39.07685953776042,-75.876806640625,-0.45224347140000004,-9.9278209674,-0.40199419680000004,-0.31585258320000004,-9.8775716928,0.035892339,0.017104172225000002,-0.1062902131125,0.0549776964375,0.090407767475,0.0,-0.0500907900875,0.09918,1.53526,-0.4292,0.14964,1.48886,-0.22968,-0.38404802730000004,-9.9026963301,-0.18305092890000002,0.05375596985,-0.05314510655625,0.002443453174999999,0.12440999999999999,1.51206,-0.32944,10.82656,1.41216,5.17792,33.535,-198.81624224339913
147246,15568738,0,-58,-1384,-51,10,-93,47,171,2647,-740,-49,-1373,5,93,0,-33,263,2571,-355,336,96,256,31.17,1.0098889711324943,35.91,1.0207253886010363,3904.611572265625,-7552.6083984375,32.5,8.153444290161133,0,0.0,0.0,0.0,0.0,21.09851534307823,0.0,0.0,-1.5146401098836306,0.0,0.0,0.0,0.0,13,1.0153071798667654,39.07685953776042,-75.876806640625,-0.4163511324,-9.9349994352,-0.36610185780000004,-0.35174492220000003,-9.8560362894,0.035892339,0.012217265875000001,-0.1136205726375,0.0574211496125,0.1136205726375,0.0,-0.0403169773875,0.09918,1.53526,-0.4292,0.15254,1.49118,-0.2059,-0.3840480273,-9.8955178623,-0.16510475940000002,0.06291891925625,-0.05681028631875,0.0085520861125,0.12586,1.51322,-0.31755,9.88512,2.82432,7.53152,33.54,-199.5990953264027
147247,15568844,0,-61,-1388,-49,15,-83,38,162,2627,-801,-40,-1373,5,91,0,-40,263,2571,-355,416,32,256,31.16,1.0099185788304958,35.93,1.0206266962743646,3904.611572265625,-7552.6083984375,32.5,8.131288528442383,0,0.0,0.0,0.0,0.0,21.002139452127288,0.0,0.0,-1.5639346046131957,0.0,0.0,0.0,0.0,13,1.0152726375524304,39.07685953776042,-75.876806640625,-0.43788653580000003,-9.9637133064,-0.35174492220000003,-0.287138712,-9.8560362894,0.035892339,0.0183258988125,-0.1014033067625,0.046425610325000005,0.1111771194625,0.0,-0.048869063500000004,0.09396,1.52366,-0.46458,0.15254,1.49118,-0.2059,-0.36251262390000005,-9.9098747979,-0.15792629160000002,0.0647515091375,-0.05070165338125,-0.0012217265874999994,0.12325,1.50742,-0.33524,12.23872,0.94144,7.53152,33.545,-199.29025224474762
147248,15568949,0,-66,-1385,-58,16,-91,47,162,2627,-801,-46,-1378,4,83,0,-36,266,2540,-382,368,80,288,31.16,1.0101258327165064,35.92,1.0206957809030348,3904.611572265625,-7552.6083984375,32.5,8.13682746887207,0,0.0,0.0,0.0,0.0,20.85215894651851,0.0,0.0,-1.6419661276430204,0.0,0.0,0.0,0.0,13,1.0154108068097707,39.07685953776042,-75.876806640625,-0.4737788748,-9.942177903000001,-0.4163511324,-0.3302095188,-9.8919286284,0.0287138712,0.0195476254,-0.1111771194625,0.0574211496125,0.1014033067625,0.0,-0.04398215715,0.09396,1.52366,-0.46458,0.15428,1.4732,-0.22156,-0.40199419680000004,-9.917053265700002,-0.19381863059999999,0.060475466081250005,-0.05558855973125,0.00671949623125,0.12412000000000001,1.49843,-0.34307,10.82656,2.3536,8.47296,33.54,-200.49668705674452
147249,15569055,0,-65,-1389,-50,12,-83,33,178,2653,-771,-43,-1375,4,89,0,-42,266,2540,-382,384,-16,256,31.16,1.0099284480631632,35.92,1.0206957809030348,3904.611572265625,-7552.6083984375,32.5,8.158430099487305,0,0.0,0.0,0.0,0.0,21.39473355956165,0.0,0.0,-1.3395598429932092,0.0,0.0,0.0,0.0,13,1.015312114483099,39.07685953776042,-75.876806640625,-0.466600407,-9.9708917742,-0.35892339,-0.3086741154,-9.870393225,0.0287138712,0.01466071905,-0.1014033067625,0.0403169773875,0.1087336662875,0.0,-0.051312516675,0.10324,1.53874,-0.44718,0.15428,1.4732,-0.22156,-0.38763726119999997,-9.9206424996,-0.1651047594,0.06169719266875,-0.05070165338125,-0.005497769643750001,0.12875999999999999,1.50597,-0.33437,11.29728,-0.47072,7.53152,33.54,-199.63496784544532
147250,15569160,0,-64,-1377,-52,6,-95,33,178,2653,-771,-44,-1371,4,81,0,-35,272,2565,-379,416,-48,272,31.17,1.010046878855169,35.92,1.0206957809030348,3904.611572265625,-7552.6083984375,32.5,8.151782989501953,0,0.0,0.0,0.0,0.0,21.215221408224178,0.0,0.0,-1.445799383587869,0.0,0.0,0.0,0.0,13,1.0153713298791018,39.07685953776042,-75.876806640625,-0.4594219392,-9.884750160600001,-0.3732803256,-0.31585258320000004,-9.8416793538,0.0287138712,0.007330359525,-0.1160640258125,0.0403169773875,0.09895985358750001,0.0,-0.0427604305625,0.10324,1.53874,-0.44718,0.15776,1.4877,-0.21982,-0.3876372612,-9.863214757200002,-0.1722832272,0.05314510655625,-0.05803201290625,-0.0012217265874999994,0.1305,1.51322,-0.3335,12.23872,-1.41216,8.00224,33.545,-200.1592458006761
147251,15569265,0,-65,-1381,-55,7,-95,49,145,2655,-754,-45,-1369,4,93,0,-40,272,2565,-379,336,112,192,31.15,1.010115963483839,35.93,1.0206859116703677,3904.611572265625,-7552.6083984375,32.5,8.146798133850098,0,0.0,0.0,0.0,0.0,20.791746675023937,0.0,0.0,-1.677443864017035,0.0,0.0,0.0,0.0,13,1.0154009375771034,39.07685953776042,-75.876806640625,-0.466600407,-9.9134640318,-0.394815729,-0.323031051,-9.8273224182,0.0287138712,0.008552086112500001,-0.1160640258125,0.059864602787500006,0.1136205726375,0.0,-0.048869063500000004,0.0841,1.5399,-0.43732,0.15776,1.4877,-0.21982,-0.394815729,-9.870393225,-0.1830509289,0.061086329375,-0.05803201290625,0.005497769643750001,0.12093000000000001,1.5138,-0.32857,9.88512,3.29504,5.64864,33.54,-200.40327666159786
147252,15569371,0,-64,-1389,-49,12,-87,44,145,2655,-754,-40,-1370,4,88,0,-42,258,2501,-387,352,64,240,31.16,1.0099679249938318,35.92,1.020715519368369,3904.611572265625,-7552.6083984375,32.5,8.147351264953613,0,0.0,0.0,0.0,0.0,21.4624197332313,0.0,0.0,-1.2984432101810324,0.0,0.0,0.0,0.0,13,1.0153417221811005,39.07685953776042,-75.876806640625,-0.4594219392,-9.9708917742,-0.35174492220000003,-0.287138712,-9.834500886,0.0287138712,0.01466071905,-0.1062902131125,0.05375596985,0.1075119397,0.0,-0.051312516675,0.0841,1.5399,-0.43732,0.14964,1.45058,-0.22446,-0.3732803256,-9.9026963301,-0.1615155255,0.061086329375,-0.05314510655625,0.0012217265874999994,0.11687,1.49524,-0.33089,10.35584,1.88288,7.0608,33.54,-199.89349407687945
147253,15569476,0,-66,-1385,-52,7,-89,44,163,2616,-745,-44,-1377,4,81,0,-44,258,2501,-387,336,64,192,31.16,1.0099185788304958,35.92,1.020715519368369,3904.611572265625,-7552.6083984375,32.5,8.166738510131836,0,0.0,0.0,0.0,0.0,20.85009003496858,0.0,0.0,-1.64131494173669,0.0,0.0,0.0,0.0,13,1.0153170490994325,39.07685953776042,-75.876806640625,-0.4737788748,-9.942177903000001,-0.3732803256,-0.31585258320000004,-9.884750160600001,0.0287138712,0.008552086112500001,-0.1087336662875,0.05375596985,0.09895985358750001,0.0,-0.05375596985,0.09454,1.51728,-0.4321,0.14964,1.45058,-0.22446,-0.39481572900000006,-9.9134640318,-0.1722832272,0.05375596985,-0.05436683314375,0.0,0.12209,1.48393,-0.32828,9.88512,1.88288,5.64864,33.54,-199.6780561738211
147254,15569582,0,-56,-1388,-50,20,-95,35,163,2616,-745,-48,-1373,3,86,0,-42,264,2529,-350,368,-16,256,31.17,1.0097902788058228,35.93,1.0207352578337034,3904.611572265625,-7552.6083984375,32.5,8.154552459716797,0,0.0,0.0,0.0,0.0,20.973739118713244,0.0,0.0,-1.5601815181109426,0.0,0.0,0.0,0.0,13,1.0152627683197633,39.07685953776042,-75.876806640625,-0.40199419680000004,-9.9637133064,-0.35892339,-0.3445664544,-9.8560362894,0.0215354034,0.024434531750000002,-0.1160640258125,0.0427604305625,0.105068486525,0.0,-0.051312516675,0.09454,1.51728,-0.4321,0.15312,1.46682,-0.203,-0.3732803256,-9.9098747979,-0.1686939933,0.0647515091375,-0.05803201290625,-0.004276043056250001,0.12383,1.4920499999999999,-0.31755,10.82656,-0.47072,7.53152,33.55,-199.2112741665348
147255,15569687,0,-63,-1382,-52,11,-91,55,148,2634,-743,-43,-1377,5,81,0,-38,264,2529,-350,336,96,224,31.16,1.0100764865531704,35.91,1.0206760424377004,3904.611572265625,-7552.6083984375,32.5,8.162306785583496,0,0.0,0.0,0.0,0.0,21.649848083396083,0.0,0.0,-1.1886383906508164,0.0,0.0,0.0,0.0,13,1.0153762644954354,39.07685953776042,-75.876806640625,-0.45224347140000004,-9.9206424996,-0.3732803256,-0.3086741154,-9.884750160600001,0.035892339,0.0134389924625,-0.1111771194625,0.06719496231250001,0.09895985358750001,0.0,-0.046425610325000005,0.08584,1.52772,-0.43094,0.15312,1.46682,-0.203,-0.3804587934,-9.9026963301,-0.1686939933,0.056199423025,-0.05558855973125,0.010384675993750002,0.11948,1.4972699999999999,-0.31697,9.88512,2.82432,6.59008,33.535,-200.19509667288858
147256,15569792,0,-68,-1383,-53,1,-94,37,148,2634,-743,-45,-1370,2,93,0,-45,278,2574,-401,416,-16,208,31.17,1.0098297557364917,35.91,1.0206168270416975,3904.611572265625,-7552.6083984375,32.5,8.146798133850098,0,0.0,0.0,0.0,0.0,21.15662767150856,0.0,0.0,-1.4702691448085237,0.0,0.0,0.0,0.0,13,1.0152232913890946,39.07685953776042,-75.876806640625,-0.48813581040000004,-9.9278209674,-0.3804587934,-0.323031051,-9.834500886,0.0143569356,0.0012217265875,-0.114842299225,0.0452038837375,0.1136205726375,0.0,-0.0549776964375,0.08584,1.52772,-0.43094,0.16124,1.49292,-0.23258,-0.4055834307,-9.881160926700002,-0.1830509289,0.0574211496125,-0.0574211496125,-0.004886906350000001,0.12354,1.51032,-0.33176,12.23872,-0.47072,6.11936,33.54,-198.86652729451703
147257,15569898,0,-61,-1381,-54,9,-94,47,169,2656,-730,-40,-1373,2,87,0,-38,278,2574,-401,400,-16,256,31.16,1.0100863557858375,35.92,1.0207549962990377,3904.611572265625,-7552.6083984375,32.5,8.153444290161133,0,0.0,0.0,0.0,0.0,20.49188050158145,0.0,0.0,-1.833939212393814,0.0,0.0,0.0,0.0,13,1.0154206760424376,39.07685953776042,-75.876806640625,-0.43788653580000003,-9.9134640318,-0.3876372612,-0.287138712,-9.8560362894,0.0143569356,0.0109955392875,-0.114842299225,0.0574211496125,0.1062902131125,0.0,-0.046425610325000005,0.09802,1.54048,-0.4234,0.16124,1.49292,-0.23258,-0.36251262390000005,-9.8847501606,-0.1866401628,0.0586428762,-0.0574211496125,0.005497769643749997,0.12963,1.5167000000000002,-0.32799,11.768,-0.47072,7.53152,33.54,-200.58285349491902
147258,15570003,0,-64,-1384,-57,3,-87,48,169,2656,-730,-40,-1366,7,85,0,-36,282,2520,-388,368,96,176,31.16,1.0099284480631632,35.91,1.020774734764372,3904.611572265625,-7552.6083984375,32.5,8.153444290161133,0,0.0,0.0,0.0,0.0,20.517948044284804,0.0,0.0,-1.797316267398562,0.0,0.0,0.0,0.0,13,1.0153515914137676,39.07685953776042,-75.876806640625,-0.4594219392,-9.9349994352,-0.4091726646,-0.287138712,-9.8057870148,0.050249274600000005,0.0036651797625,-0.1062902131125,0.0586428762,0.1038467599375,0.0,-0.04398215715,0.09802,1.54048,-0.4234,0.16356,1.4616,-0.22504,-0.3732803256,-9.870393225,-0.179461695,0.05375596985,-0.05314510655625,0.007330359525,0.13079000000000002,1.5010400000000002,-0.32422,10.82656,2.82432,5.17792,33.535,-199.97966749336038
147259,15570109,0,-62,-1380,-54,6,-101,44,141,2657,-742,-38,-1374,3,88,0,-42,259,2575,-395,368,48,208,31.16,1.0098100172711573,35.91,1.0206168270416975,3904.611572265625,-7552.6083984375,32.5,8.142366409301758,0,0.0,0.0,0.0,0.0,20.995793916489312,0.0,0.0,-1.512105309876688,0.0,0.0,0.0,0.0,13,1.0152134221564273,39.07685953776042,-75.876806640625,-0.4450650036,-9.906285564000001,-0.3876372612,-0.2727817764,-9.8632147572,0.0215354034,0.007330359525,-0.12339438533750001,0.05375596985,0.1075119397,0.0,-0.051312516675,0.08178,1.54106,-0.43036,0.15022,1.4935,-0.2291,-0.35892339,-9.8847501606,-0.18305092890000002,0.0574211496125,-0.061697192668750005,0.0012217265874999994,0.11599999999999999,1.51728,-0.32973,10.82656,1.41216,6.11936,33.535,-198.77314892926907
147260,15570214,0,-63,-1383,-54,10,-87,43,141,2657,-742,-38,-1370,5,91,0,-38,259,2575,-395,336,112,256,31.17,1.0099383172958305,35.92,1.0208142116950407,3904.611572265625,-7552.6083984375,32.5,8.147905349731445,0,0.0,0.0,0.0,0.0,20.67681047170445,0.0,0.0,-1.6791215922366909,0.0,0.0,0.0,0.0,13,1.0153762644954356,39.07685953776042,-75.876806640625,-0.45224347140000004,-9.9278209674,-0.3876372612,-0.2727817764,-9.834500886,0.035892339,0.012217265875000001,-0.1062902131125,0.0525342432625,0.1111771194625,0.0,-0.046425610325000005,0.08178,1.54106,-0.43036,0.15022,1.4935,-0.2291,-0.36251262390000005,-9.881160926700002,-0.17587246110000002,0.06169719266875,-0.05314510655625,0.0030543164687499985,0.11599999999999999,1.51728,-0.32973,9.88512,3.29504,7.53152,33.545,-200.20233255395303
147261,15570319,0,-65,-1387,-48,16,-100,50,189,2648,-730,-45,-1378,2,93,0,-41,260,2545,-379,400,96,288,31.16,1.0099679249938318,35.91,1.0207352578337034,3904.611572265625,-7552.6083984375,32.5,8.164522171020508,0,0.0,0.0,0.0,0.0,20.897049870425477,0.0,0.0,-1.5423777136543224,0.0,0.0,0.0,0.0,13,1.0153515914137676,39.07685953776042,-75.876806640625,-0.466600407,-9.9565348386,-0.3445664544,-0.323031051,-9.8919286284,0.0143569356,0.0195476254,-0.12217265875000001,0.061086329375000005,0.1136205726375,0.0,-0.0500907900875,0.10962,1.53584,-0.4234,0.1508,1.4761,-0.21982,-0.394815729,-9.924231733500001,-0.1651047594,0.06658409901875,-0.061086329375000005,0.005497769643750001,0.13021,1.50597,-0.32161,11.768,2.82432,8.47296,33.535,-199.97966749336038
147262,15570425,0,-69,-1382,-57,5,-93,38,189,2648,-730,-39,-1377,5,88,0,-35,260,2545,-379,416,64,336,31.17,1.0100074019245004,35.91,1.020774734764372,3904.611572265625,-7552.6083984375,32.5,8.16341495513916,0,0.0,0.0,0.0,0.0,20.803310883164517,0.0,0.0,-1.5895384120140117,0.0,0.0,0.0,0.0,13,1.0153910683444363,39.07685953776042,-75.876806640625,-0.4953142782,-9.9206424996,-0.4091726646,-0.2799602442,-9.884750160600001,0.035892339,0.0061086329375000005,-0.1136205726375,0.046425610325000005,0.1075119397,0.0,-0.0427604305625,0.10962,1.53584,-0.4234,0.1508,1.4761,-0.21982,-0.38763726119999997,-9.9026963301,-0.1866401628,0.05681028631875,-0.05681028631875,0.0018325898812500026,0.13021,1.50597,-0.32161,12.23872,1.88288,9.88512,33.54,-200.33159131838113
147263,15570530,0,-62,-1390,-54,8,-97,40,146,2658,-761,-44,-1367,4,91,0,-41,247,2558,-382,432,112,320,31.16,1.009977794226499,35.92,1.0206957809030348,3904.611572265625,-7552.6083984375,32.5,8.143474578857422,0,0.0,0.0,0.0,0.0,20.78280293357232,0.0,0.0,-1.5934221900449426,0.0,0.0,0.0,0.0,13,1.0153367875647668,39.07685953776042,-75.876806640625,-0.4450650036,-9.978070242000001,-0.3876372612,-0.31585258320000004,-9.812965482600001,0.0287138712,0.0097738127,-0.11850747898750001,0.048869063500000004,0.1111771194625,0.0,-0.0500907900875,0.08468,1.54164,-0.44138,0.14326,1.48364,-0.22156,-0.3804587934,-9.8955178623,-0.179461695,0.06047546608125,-0.059253739493750006,-0.0006108632937499997,0.11397,1.51264,-0.33147,12.70944,3.29504,9.4144,33.54,-199.850406994772
147264,15570635,0,-69,-1381,-52,10,-103,44,143,2650,-774,-47,-1373,4,89,0,-38,247,2558,-382,336,64,256,31.16,1.009977794226499,35.92,1.020587219343696,3904.611572265625,-7552.6083984375,32.5,8.141258239746094,0,0.0,0.0,0.0,0.0,20.76027203405901,0.0,0.0,-1.592780343707188,0.0,0.0,0.0,0.0,13,1.0152825067850975,39.07685953776042,-75.876806640625,-0.4953142782,-9.9134640318,-0.3732803256,-0.3373879866,-9.8560362894,0.0287138712,0.012217265875000001,-0.1258378385125,0.05375596985,0.1087336662875,0.0,-0.046425610325000005,0.08294,1.537,-0.44892,0.14326,1.48364,-0.22156,-0.4163511324,-9.8847501606,-0.1722832272,0.06047546608125,-0.06291891925625,0.0036651797624999982,0.1131,1.51032,-0.33524,9.88512,1.88288,7.53152,33.54,-199.37643264056933
147265,15570740,0,-62,-1384,-55,6,-91,38,143,2650,-774,-39,-1376,1,95,0,-45,271,2537,-368,384,48,304,31.17,1.0099383172958305,35.9,1.0208043424623736,3904.611572265625,-7552.6083984375,32.5,8.153444290161133,0,0.0,0.0,0.0,0.0,20.631167969045,0.0,0.0,-1.6543453541621242,0.0,0.0,0.0,0.0,13,1.015371329879102,39.07685953776042,-75.876806640625,-0.4450650036,-9.9349994352,-0.394815729,-0.2799602442,-9.8775716928,0.0071784678,0.007330359525,-0.1111771194625,0.046425610325000005,0.1160640258125,0.0,-0.0549776964375,0.08294,1.537,-0.44892,0.15718000000000001,1.47146,-0.21344,-0.3625126239,-9.906285564000001,-0.1938186306,0.06169719266875,-0.05558855973125,-0.004276043056249998,0.12006,1.50423,-0.33118,11.29728,1.41216,8.94368,33.535,-200.1592458006813
147266,15570845,0,-66,-1378,-54,10,-94,51,147,2635,-734,-40,-1375,4,73,0,-47,271,2537,-368,320,128,192,31.18,1.00986923266716,35.91,1.020774734764372,3904.611572265625,-7552.6083984375,32.5,8.160091400146484,0,0.0,0.0,0.0,0.0,21.60506825264323,0.0,0.0,-1.1133884366728044,0.0,0.0,0.0,0.0,13,1.015321983715766,39.07685953776042,-75.876806640625,-0.4737788748,-9.8919286284,-0.3876372612,-0.287138712,-9.870393225,0.0287138712,0.012217265875000001,-0.114842299225,0.062308055962500004,0.0891860408875,0.0,-0.0574211496125,0.08526,1.5283,-0.42572,0.15718000000000001,1.47146,-0.21344,-0.3804587934,-9.881160926700002,-0.179461695,0.05070165338125,-0.0574211496125,0.0024434531750000023,0.12122000000000001,1.49988,-0.31958,9.4144,3.76576,5.64864,33.545,-199.73558486575288
147267,15570951,0,-64,-1379,-52,6,-93,44,147,2635,-734,-47,-1373,9,92,0,-44,240,2554,-355,336,80,256,31.16,1.0098100172711573,35.91,1.0207253886010363,3904.611572265625,-7552.6083984375,32.5,8.141812324523926,0,0.0,0.0,0.0,0.0,20.95936804975899,0.0,0.0,-1.4839156109148453,0.0,0.0,0.0,0.0,13,1.0152677029360968,39.07685953776042,-75.876806640625,-0.4594219392,-9.8991070962,-0.3732803256,-0.3373879866,-9.8560362894,0.0646062102,0.007330359525,-0.1136205726375,0.05375596985,0.11239884605,0.0,-0.05375596985,0.08526,1.5283,-0.42572,0.1392,1.48132,-0.2059,-0.39840496290000005,-9.8775716928,-0.1543370577,0.0598646027875,-0.05681028631875,0.0,0.11223,1.50481,-0.31581,9.88512,2.3536,7.53152,33.535,-199.2471616729152
147268,15571056,0,-65,-1384,-49,6,-95,40,152,2646,-756,-45,-1372,4,88,0,-39,240,2554,-355,320,144,240,31.16,1.0099679249938318,35.9,1.0208043424623736,3904.611572265625,-7552.6083984375,32.5,8.142366409301758,0,0.0,0.0,0.0,0.0,20.576167833100307,0.0,0.0,-1.6895412271486965,0.0,0.0,0.0,0.0,13,1.0153861337281027,39.07685953776042,-75.876806640625,-0.466600407,-9.9349994352,-0.35174492220000003,-0.323031051,-9.848857821600001,0.0287138712,0.007330359525,-0.1160640258125,0.048869063500000004,0.1075119397,0.0,-0.047647336912500005,0.08816,1.53468,-0.43848,0.1392,1.48132,-0.2059,-0.394815729,-9.8919286284,-0.1615155255,0.0574211496125,-0.05803201290625,0.0006108632937499997,0.11368,1.508,-0.32219,9.4144,4.23648,7.0608,33.53,-200.28126660009153
147269,15571161,0,-61,-1384,-52,6,-86,48,152,2646,-756,-40,-1374,6,85,0,-45,270,2550,-359,368,96,256,31.16,1.0099679249938318,35.92,1.0206563039723662,3904.611572265625,-7552.6083984375,32.5,8.131288528442383,0,0.0,0.0,0.0,0.0,20.44379974667405,0.0,0.0,-1.7447137490823112,0.0,0.0,0.0,0.0,13,1.015312114483099,39.07685953776042,-75.876806640625,-0.43788653580000003,-9.9349994352,-0.3732803256,-0.287138712,-9.8632147572,0.0430708068,0.007330359525,-0.105068486525,0.0586428762,0.1038467599375,0.0,-0.0549776964375,0.08816,1.53468,-0.43848,0.1566,1.479,-0.20822,-0.36251262390000005,-9.8991070962,-0.16510475940000002,0.05558855973125,-0.0525342432625,0.0018325898812499991,0.12237999999999999,1.50684,-0.32334999999999997,10.82656,2.82432,7.53152,33.54,-199.63496784544532
147270,15571267,0,-63,-1381,-46,0,-91,44,149,2653,-738,-42,-1370,3,88,0,-42,270,2550,-359,288,80,288,31.17,1.0101554404145077,35.92,1.0208043424623736,3904.611572265625,-7552.6083984375,32.5,8.167845726013184,0,0.0,0.0,0.0,0.0,20.547680343385064,0.0,0.0,-1.6733728531922398,0.0,0.0,0.0,0.0,13,1.0154798914384406,39.07685953776042,-75.876806640625,-0.45224347140000004,-9.9134640318,-0.3302095188,-0.3014956476,-9.834500886,0.0215354034,0.0,-0.1111771194625,0.05375596985,0.1075119397,0.0,-0.051312516675,0.08642,1.53874,-0.42804,0.1566,1.479,-0.20822,-0.3768695595,-9.8739824589,-0.1543370577,0.05375596985,-0.05558855973125,0.0012217265874999994,0.12150999999999999,1.50887,-0.31812999999999997,8.47296,2.3536,8.47296,33.545,-201.10709680337052
147271,15571372,0,-62,-1383,-54,11,-94,38,149,2653,-738,-44,-1377,4,83,0,-39,246,2534,-363,240,48,384,31.17,1.0097804095731555,35.91,1.0208438193930425,3904.611572265625,-7552.6083984375,32.5,8.161199569702148,0,0.0,0.0,0.0,0.0,20.77249395915745,0.0,0.0,-1.5318692420871645,0.0,0.0,0.0,0.0,13,1.015312114483099,39.07685953776042,-75.876806640625,-0.4450650036,-9.9278209674,-0.3876372612,-0.31585258320000004,-9.884750160600001,0.0287138712,0.0134389924625,-0.114842299225,0.046425610325000005,0.1014033067625,0.0,-0.047647336912500005,0.08642,1.53874,-0.42804,0.14268,1.46972,-0.21054,-0.3804587934,-9.906285564000001,-0.179461695,0.0574211496125,-0.0574211496125,-0.0006108632937499997,0.11455,1.50423,-0.31928999999999996,7.0608,1.41216,11.29728,33.54,-199.6421853199892
147272,15571478,0,-59,-1383,-49,7,-93,35,173,2633,-725,-47,-1370,5,94,0,-40,246,2534,-363,416,-16,272,31.16,1.0100863557858375,35.9,1.020705650135702,3904.611572265625,-7552.6083984375,32.5,8.13682746887207,0,0.0,0.0,0.0,0.0,20.62999707709296,0.0,0.0,-1.6028318594923336,0.0,0.0,0.0,0.0,13,1.0153960029607698,39.07685953776042,-75.876806640625,-0.4235296002,-9.9278209674,-0.35174492220000003,-0.3373879866,-9.834500886,0.035892339,0.008552086112500001,-0.1136205726375,0.0427604305625,0.114842299225,0.0,-0.048869063500000004,0.10034,1.52714,-0.4205,0.14268,1.46972,-0.21054,-0.3804587934,-9.881160926700002,-0.15792629160000002,0.06169719266875,-0.05681028631875,-0.003054316468750002,0.12151,1.49843,-0.31552,12.23872,-0.47072,8.00224,33.53,-200.3674355303973
147273,15571583,0,-59,-1383,-55,-8,-98,35,173,2633,-725,-40,-1375,4,82,0,-40,254,2532,-398,320,96,288,31.16,1.0099679249938318,35.9,1.020705650135702,3904.611572265625,-7552.6083984375,32.5,8.140151023864746,0,0.0,0.0,0.0,0.0,20.695431744179288,0.0,0.0,-1.5580741542571377,0.0,0.0,0.0,0.0,13,1.0153367875647668,39.07685953776042,-75.876806640625,-0.4235296002,-9.9278209674,-0.394815729,-0.287138712,-9.870393225,0.0287138712,-0.0097738127,-0.11972920557500001,0.0427604305625,0.100181580175,0.0,-0.048869063500000004,0.10034,1.52714,-0.4205,0.14732,1.46856,-0.23084,-0.3553341561,-9.899107096200002,-0.1830509289,0.045203883737500006,-0.059864602787500006,-0.003054316468750002,0.12383,1.4978500000000001,-0.32567,9.4144,2.82432,8.47296,33.53,-199.850406994772
147274,15571688,0,-57,-1385,-60,5,-99,33,150,2639,-758,-41,-1375,3,87,0,-47,273,2554,-370,384,-16,320,31.16,1.0098889711324943,35.9,1.0208734270910436,3904.611572265625,-7552.6083984375,32.5,8.160645484924316,0,0.0,0.0,0.0,0.0,20.634494871845316,0.0,0.0,-1.5833159897839433,0.0,0.0,0.0,0.0,13,1.015381199111769,39.07685953776042,-75.876806640625,-0.4091726646,-9.942177903000001,-0.430708068,-0.2943171798,-9.870393225,0.0215354034,0.0061086329375000005,-0.12095093216250001,0.0403169773875,0.1062902131125,0.0,-0.0574211496125,0.087,1.53062,-0.43964,0.15834,1.48132,-0.2146,-0.3517449222,-9.906285564000001,-0.2045863323,0.056199423025,-0.060475466081250005,-0.0085520861125,0.12267,1.50597,-0.32711999999999997,11.29728,-0.47072,9.4144,33.53,-200.23818176110285
147275,15571794,0,-67,-1380,-51,0,-89,51,150,2639,-758,-46,-1367,4,81,0,-37,273,2554,-370,384,96,288,31.17,1.010046878855169,35.91,1.0207944732297063,3904.611572265625,-7552.6083984375,32.5,8.162306785583496,0,0.0,0.0,0.0,0.0,20.445693462494365,0.0,0.0,-1.6807333223381953,0.0,0.0,0.0,0.0,13,1.0154206760424378,39.07685953776042,-75.876806640625,-0.4809573426,-9.906285564000001,-0.36610185780000004,-0.3302095188,-9.812965482600001,0.0287138712,0.0,-0.1087336662875,0.062308055962500004,0.09895985358750001,0.0,-0.0452038837375,0.087,1.53062,-0.43964,0.15834,1.48132,-0.2146,-0.4055834307,-9.8596255233,-0.1686939933,0.049479926793750004,-0.05436683314375,0.008552086112500003,0.12267,1.50597,-0.32711999999999997,11.29728,2.82432,8.47296,33.54,-200.59010211815362
147276,15571899,0,-63,-1389,-50,6,-87,47,144,2626,-739,-46,-1369,5,92,0,-50,257,2546,-349,352,-16,208,31.17,1.0100074019245004,35.9,1.0209326424870466,3904.611572265625,-7552.6083984375,32.5,8.164522171020508,0,0.0,0.0,0.0,0.0,20.55154570981168,0.0,0.0,-1.6118315600270474,0.0,0.0,0.0,0.0,13,1.0154700222057735,39.07685953776042,-75.876806640625,-0.45224347140000004,-9.9708917742,-0.35892339,-0.3302095188,-9.8273224182,0.035892339,0.007330359525,-0.1062902131125,0.0574211496125,0.11239884605,0.0,-0.061086329375000005,0.08352,1.52308,-0.42862,0.14906,1.47668,-0.20242,-0.3912264951,-9.8991070962,-0.1615155255,0.0598646027875,-0.05314510655625,-0.0018325898812500026,0.11629,1.49988,-0.31552,10.35584,-0.47072,6.11936,33.535,-201.02093351442485
147277,15572005,0,-60,-1386,-53,11,-93,40,144,2626,-739,-37,-1371,4,89,0,-41,257,2546,-349,336,-16,144,31.16,1.0097705403404886,35.91,1.0207352578337034,3904.611572265625,-7552.6083984375,32.5,8.140151023864746,0,0.0,0.0,0.0,0.0,20.68347241846989,0.0,0.0,-1.5273497396022926,0.0,0.0,0.0,0.0,13,1.0152528990870962,39.07685953776042,-75.876806640625,-0.430708068,-9.9493563708,-0.3804587934,-0.26560330860000003,-9.8416793538,0.0287138712,0.0134389924625,-0.1136205726375,0.048869063500000004,0.1087336662875,0.0,-0.0500907900875,0.08352,1.52308,-0.42862,0.14906,1.47668,-0.20242,-0.3481556883,-9.8955178623,-0.1758724611,0.061086329375,-0.05681028631875,-0.0006108632937499997,0.11629,1.49988,-0.31552,9.88512,-0.47072,4.23648,33.535,-199.11788846168494
147278,15572110,0,-65,-1384,-54,4,-88,47,144,2649,-744,-43,-1373,0,92,0,-44,258,2536,-343,304,128,256,31.16,1.0100172711571676,35.9,1.0209326424870466,3904.611572265625,-7552.6083984375,32.5,8.166738510131836,0,0.0,0.0,0.0,0.0,20.497171139941063,0.0,0.0,-1.6240309497560566,0.0,0.0,0.0,0.0,13,1.015474956822107,39.07685953776042,-75.876806640625,-0.466600407,-9.9349994352,-0.3876372612,-0.3086741154,-9.8560362894,0.0,0.00488690635,-0.1075119397,0.0574211496125,0.11239884605,0.0,-0.05375596985,0.08352,1.5364200000000001,-0.43152,0.14964,1.47088,-0.19894,-0.38763726119999997,-9.8955178623,-0.1938186306,0.0586428762,-0.05375596985,0.0018325898812499991,0.11657999999999999,1.50365,-0.31523,8.94368,3.76576,7.53152,33.53,-201.05675108740277
147279,15572215,0,-64,-1382,-56,16,-92,47,144,2649,-744,-48,-1369,5,85,0,-40,258,2536,-343,288,16,256,31.17,1.009849494201826,35.91,1.0207253886010363,3904.611572265625,-7552.6083984375,32.5,8.172831535339355,0,0.0,0.0,0.0,0.0,20.692986202110745,0.0,0.0,-1.5050005568738274,0.0,0.0,0.0,0.0,13,1.0152874414014312,39.07685953776042,-75.876806640625,-0.4594219392,-9.9206424996,-0.40199419680000004,-0.3445664544,-9.8273224182,0.035892339,0.0195476254,-0.11239884605,0.0574211496125,0.1038467599375,0.0,-0.048869063500000004,0.08352,1.5364200000000001,-0.43152,0.14964,1.47088,-0.19894,-0.40199419680000004,-9.873982458899999,-0.18305092890000002,0.061697192668750005,-0.056199423025,0.004276043056249998,0.11657999999999999,1.50365,-0.31523,8.47296,0.47072,7.53152,33.54,-199.42673285930812
147280,15572321,0,-61,-1386,-51,2,-100,43,147,2631,-730,-40,-1374,5,82,0,-46,255,2545,-393,384,16,192,31.17,1.0099580557611645,35.91,1.0207352578337034,3904.611572265625,-7552.6083984375,32.5,8.14292049407959,0,0.0,0.0,0.0,0.0,20.615956242154542,0.0,0.0,-1.5434654817982196,0.0,0.0,0.0,0.0,13,1.0153466567974339,39.07685953776042,-75.876806640625,-0.43788653580000003,-9.9493563708,-0.36610185780000004,-0.287138712,-9.8632147572,0.035892339,0.002443453175,-0.12217265875000001,0.0525342432625,0.100181580175,0.0,-0.056199423025,0.08526,1.5259800000000001,-0.4234,0.1479,1.4761,-0.22794,-0.36251262390000005,-9.906285564000001,-0.16510475940000002,0.051312516675,-0.061086329375000005,-0.0018325898812499991,0.11658,1.5010400000000002,-0.32567,11.29728,0.47072,5.64864,33.54,-199.94380829565978
147281,15572426,0,-65,-1382,-48,5,-93,43,147,2631,-730,-37,-1373,6,86,0,-43,255,2545,-393,336,48,240,31.17,1.009849494201826,35.91,1.0207944732297063,3904.611572265625,-7552.6083984375,32.5,8.150120735168457,0,0.0,0.0,0.0,0.0,20.44749106227316,0.0,0.0,-1.628269360443361,0.0,0.0,0.0,0.0,13,1.015321983715766,39.07685953776042,-75.876806640625,-0.466600407,-9.9206424996,-0.3445664544,-0.26560330860000003,-9.8560362894,0.0430708068,0.0061086329375000005,-0.1136205726375,0.0525342432625,0.105068486525,0.0,-0.0525342432625,0.08526,1.5259800000000001,-0.4234,0.1479,1.4761,-0.22794,-0.36610185780000004,-9.8883393945,-0.1507478238,0.05558855973125,-0.05681028631875,0.0,0.11658,1.5010400000000002,-0.32567,9.88512,1.41216,7.0608,33.54,-199.7283645593465
147282,15572532,0,-62,-1386,-55,14,-97,40,158,2644,-740,-42,-1379,3,85,0,-38,241,2579,-362,368,-16,240,31.16,1.0099185788304958,35.9,1.0208043424623736,3904.611572265625,-7552.6083984375,32.5,8.14458179473877,0,0.0,0.0,0.0,0.0,20.6914696171028,0.0,0.0,-1.486513047089109,0.0,0.0,0.0,0.0,13,1.0153614606464347,39.07685953776042,-75.876806640625,-0.4450650036,-9.9493563708,-0.394815729,-0.3014956476,-9.8991070962,0.0215354034,0.017104172225000002,-0.11850747898750001,0.048869063500000004,0.1038467599375,0.0,-0.046425610325000005,0.09164,1.53352,-0.4292,0.13978,1.49582,-0.20996,-0.3732803256,-9.924231733500001,-0.1866401628,0.060475466081250005,-0.059253739493750006,0.0012217265874999994,0.11571,1.51467,-0.31958000000000003,10.82656,-0.47072,7.0608,33.53,-200.06583991287653
147283,15572637,0,-59,-1385,-60,4,-100,48,145,2652,-732,-44,-1369,3,87,0,-34,241,2579,-362,416,-16,272,31.17,1.009740932642487,35.9,1.0206760424377004,3904.611572265625,-7552.6083984375,32.5,8.153444290161133,0,0.0,0.0,0.0,0.0,20.907522206323627,0.0,0.0,-1.3637234748603653,0.0,0.0,0.0,0.0,13,1.0152084875400937,39.07685953776042,-75.876806640625,-0.4235296002,-9.942177903000001,-0.430708068,-0.31585258320000004,-9.8273224182,0.0215354034,0.00488690635,-0.12217265875000001,0.0586428762,0.1062902131125,0.0,-0.041538703975,0.0841,1.53816,-0.42456,0.13978,1.49582,-0.20996,-0.36969109170000003,-9.8847501606,-0.2045863323,0.05558855973125,-0.061086329375000005,0.0085520861125,0.11193999999999998,1.5169899999999998,-0.31726,12.23872,-0.47072,8.00224,33.535,-198.7372431038345
147284,15572742,0,-61,-1381,-51,14,-97,39,145,2652,-732,-42,-1369,4,86,0,-35,247,2565,-349,400,80,336,31.16,1.0098198865038244,35.91,1.0207944732297063,3904.611572265625,-7552.6083984375,32.5,8.14458179473877,0,0.0,0.0,0.0,0.0,21.015761901138728,0.0,0.0,-1.308115811421803,0.0,0.0,0.0,0.0,13,1.0153071798667654,39.07685953776042,-75.876806640625,-0.43788653580000003,-9.9134640318,-0.36610185780000004,-0.3014956476,-9.8273224182,0.0287138712,0.017104172225000002,-0.11850747898750001,0.047647336912500005,0.105068486525,0.0,-0.0427604305625,0.0841,1.53816,-0.42456,0.14326,1.4877,-0.20242,-0.36969109170000003,-9.870393225,-0.1686939933,0.061086329375000005,-0.059253739493750006,0.0024434531750000023,0.11368,1.5129299999999999,-0.31349,11.768,2.3536,9.88512,33.535,-199.59187926780234
147285,15572848,0,-68,-1384,-44,7,-101,50,159,2654,-732,-39,-1374,4,92,0,-32,247,2565,-349,272,-16,288,31.17,1.0099580557611645,35.9,1.0209326424870466,3904.611572265625,-7552.6083984375,32.5,8.166738510131836,0,0.0,0.0,0.0,0.0,20.617741737685336,0.0,0.0,-1.5318066597970372,0.0,0.0,0.0,0.0,13,1.0154453491241056,39.07685953776042,-75.876806640625,-0.48813581040000004,-9.9349994352,-0.31585258320000004,-0.2799602442,-9.8632147572,0.0287138712,0.008552086112500001,-0.12339438533750001,0.061086329375000005,0.11239884605,0.0,-0.0390952508,0.09222,1.53932,-0.42456,0.14326,1.4877,-0.20242,-0.3840480273,-9.8991070962,-0.143569356,0.06047546608125,-0.061697192668750005,0.010995539287500002,0.11774,1.5135100000000001,-0.31349,8.00224,-0.47072,8.47296,33.535,-200.8055209312698
147286,15572953,0,-64,-1381,-53,12,-95,41,159,2654,-732,-40,-1378,5,88,0,-41,257,2547,-359,304,-16,208,31.16,1.0098198865038244,35.9,1.020705650135702,3904.611572265625,-7552.6083984375,32.5,8.143474578857422,0,0.0,0.0,0.0,0.0,20.689963823805098,0.0,0.0,-1.4841259282623702,0.0,0.0,0.0,0.0,13,1.0152627683197633,39.07685953776042,-75.876806640625,-0.4594219392,-9.9134640318,-0.3804587934,-0.287138712,-9.8919286284,0.035892339,0.01466071905,-0.1160640258125,0.0500907900875,0.1075119397,0.0,-0.0500907900875,0.09222,1.53932,-0.42456,0.14906,1.47726,-0.20822,-0.3732803256,-9.9026963301,-0.1722832272,0.061086329375,-0.05803201290625,0.0,0.12064,1.5082900000000001,-0.31639,8.94368,-0.47072,6.11936,33.53,-199.20407085179482
147287,15573058,0,-58,-1380,-53,8,-95,48,154,2649,-736,-40,-1372,3,86,0,-45,257,2547,-359,416,16,336,31.17,1.0098988403651616,35.9,1.0208635578583765,3904.611572265625,-7552.6083984375,32.5,8.164522171020508,0,0.0,0.0,0.0,0.0,20.697919395985817,0.0,0.0,-1.4801533208509712,0.0,0.0,0.0,0.0,13,1.015381199111769,39.07685953776042,-75.876806640625,-0.4163511324,-9.906285564000001,-0.3804587934,-0.287138712,-9.848857821600001,0.0215354034,0.0097738127,-0.1160640258125,0.0586428762,0.105068486525,0.0,-0.0549776964375,0.08932,1.5364200000000001,-0.42688,0.14906,1.47726,-0.20822,-0.3517449222,-9.8775716928,-0.179461695,0.0574211496125,-0.05803201290625,0.0018325898812499991,0.11918999999999999,1.50684,-0.31755,12.23872,0.47072,9.88512,33.535,-200.2454190579962
147288,15573164,0,-65,-1389,-58,1,-93,43,154,2649,-736,-42,-1372,5,91,0,-39,253,2541,-396,256,128,288,31.16,1.0096521095484825,35.91,1.020903034789045,3904.611572265625,-7552.6083984375,32.5,8.139042854309082,0,0.0,0.0,0.0,0.0,20.47329766325121,0.0,0.0,-1.5972636134047735,0.0,0.0,0.0,0.0,13,1.0152775721687637,39.07685953776042,-75.876806640625,-0.466600407,-9.9708917742,-0.4163511324,-0.3014956476,-9.848857821600001,0.035892339,0.0012217265875,-0.1136205726375,0.0525342432625,0.1111771194625,0.0,-0.047647336912500005,0.08932,1.5364200000000001,-0.42688,0.14674,1.47378,-0.22968,-0.3840480273,-9.9098747979,-0.1902293967,0.056199423025,-0.05681028631875,0.002443453174999999,0.11803,1.5051,-0.32828,7.53152,3.76576,8.47296,33.535,-199.33334256729728
147289,15573269,0,-65,-1383,-51,-6,-105,44,153,2653,-739,-43,-1373,4,87,0,-45,272,2583,-370,336,48,208,31.16,1.0099185788304958,35.91,1.0207352578337034,3904.611572265625,-7552.6083984375,32.5,8.166738510131836,0,0.0,0.0,0.0,0.0,20.42966136634235,0.0,0.0,-1.612091909904623,0.0,0.0,0.0,0.0,13,1.0153269183320996,39.07685953776042,-75.876806640625,-0.466600407,-9.9278209674,-0.36610185780000004,-0.3086741154,-9.8560362894,0.0287138712,-0.007330359525,-0.1282812916875,0.05375596985,0.1062902131125,0.0,-0.0549776964375,0.08874,1.53874,-0.42862,0.15776,1.49814,-0.2146,-0.38763726119999997,-9.8919286284,-0.1686939933,0.049479926793750004,-0.06414064584375,-0.0006108632937499997,0.12325,1.51844,-0.32161,9.88512,1.41216,6.11936,33.535,-199.76423208280752
147290,15573375,0,-60,-1379,-53,6,-99,48,153,2653,-739,-45,-1375,5,92,0,-41,272,2583,-370,336,64,304,31.17,1.0100962250185048,35.9,1.0207253886010363,3904.611572265625,-7552.6083984375,32.5,8.162306785583496,0,0.0,0.0,0.0,0.0,20.37152865996988,0.0,0.0,-1.6359026294104937,0.0,0.0,0.0,0.0,13,1.0154108068097707,39.07685953776042,-75.876806640625,-0.430708068,-9.8991070962,-0.3804587934,-0.323031051,-9.870393225,0.035892339,0.007330359525,-0.12095093216250001,0.0586428762,0.11239884605,0.0,-0.0500907900875,0.08874,1.53874,-0.42862,0.15776,1.49814,-0.2146,-0.3768695595,-9.8847501606,-0.1722832272,0.0598646027875,-0.060475466081250005,0.004276043056249998,0.12325,1.51844,-0.32161,9.88512,1.88288,8.94368,33.535,-200.50393284843906
147291,15573480,0,-60,-1385,-52,12,-92,43,166,2626,-784,-44,-1375,4,84,0,-37,247,2563,-337,352,32,272,31.15,1.009849494201826,35.91,1.020952380952381,3904.611572265625,-7552.6083984375,32.5,8.14458179473877,0,0.0,0.0,0.0,0.0,20.51318700798581,0.0,0.0,-1.5479642889624774,0.0,0.0,0.0,0.0,13,1.0154009375771036,39.07685953776042,-75.876806640625,-0.430708068,-9.942177903000001,-0.3732803256,-0.31585258320000004,-9.870393225,0.0287138712,0.01466071905,-0.11239884605,0.0525342432625,0.10262503335,0.0,-0.0452038837375,0.09628,1.52308,-0.45472,0.14326,1.48654,-0.19546,-0.3732803256,-9.906285564000001,-0.1722832272,0.0586428762,-0.056199423025,0.0036651797625000017,0.11977,1.50481,-0.32509,10.35584,0.94144,8.00224,33.53,-200.40327666160303
147292,15573585,0,-62,-1384,-55,-1,-88,41,166,2626,-784,-38,-1379,5,90,0,-43,247,2563,-337,480,32,256,31.16,1.0099185788304958,35.91,1.0207253886010363,3904.611572265625,-7552.6083984375,32.5,8.146798133850098,0,0.0,0.0,0.0,0.0,20.59197015511776,0.0,0.0,-1.4963823759332815,0.0,0.0,0.0,0.0,13,1.015321983715766,39.07685953776042,-75.876806640625,-0.4450650036,-9.9349994352,-0.394815729,-0.2727817764,-9.8991070962,0.035892339,-0.0012217265875,-0.1075119397,0.0500907900875,0.109955392875,0.0,-0.0525342432625,0.09628,1.52308,-0.45472,0.14326,1.48654,-0.19546,-0.35892339,-9.9170532657,-0.179461695,0.05436683314375,-0.05375596985,-0.0012217265874999994,0.11977,1.50481,-0.32509,14.1216,0.94144,7.53152,33.535,-199.72114425294012
147293,15573691,0,-62,-1385,-52,0,-103,43,132,2638,-745,-44,-1369,4,85,0,-37,261,2541,-324,368,80,256,31.16,1.0098889711324943,35.9,1.020764865531705,3904.611572265625,-7552.6083984375,32.5,8.14901351928711,0,0.0,0.0,0.0,0.0,20.39308692937576,0.0,0.0,-1.6008700299164076,0.0,0.0,0.0,0.0,13,1.0153269183320996,39.07685953776042,-75.876806640625,-0.4450650036,-9.942177903000001,-0.3732803256,-0.31585258320000004,-9.8273224182,0.0287138712,0.0,-0.1258378385125,0.0525342432625,0.1038467599375,0.0,-0.0452038837375,0.07656,1.53004,-0.4321,0.15138000000000001,1.47378,-0.18792,-0.3804587934,-9.8847501606,-0.1722832272,0.05192337996875,-0.06291891925625,0.0036651797625000017,0.11397000000000002,1.50191,-0.31001,10.82656,2.3536,7.53152,33.53,-199.76423208280752
147294,15573796,0,-65,-1383,-55,9,-102,48,132,2638,-745,-43,-1379,5,91,0,-38,261,2541,-324,336,48,208,31.16,1.010046878855169,35.9,1.0208635578583765,3904.611572265625,-7552.6083984375,32.5,8.157876014709473,0,0.0,0.0,0.0,0.0,20.11233976592817,0.0,0.0,-1.7456281744482651,0.0,0.0,0.0,0.0,13,1.0154552183567729,39.07685953776042,-75.876806640625,-0.466600407,-9.9278209674,-0.394815729,-0.3086741154,-9.8991070962,0.035892339,0.0109955392875,-0.12461611192500001,0.0586428762,0.1111771194625,0.0,-0.046425610325000005,0.07656,1.53004,-0.4321,0.15138000000000001,1.47378,-0.18792,-0.38763726119999997,-9.9134640318,-0.179461695,0.061086329375,-0.062308055962500004,0.006108632937499997,0.11397000000000002,1.50191,-0.31001,9.88512,1.41216,6.11936,33.53,-200.88442817876796
147295,15573902,0,-64,-1387,-58,1,-106,49,162,2643,-726,-44,-1371,2,83,0,-44,227,2572,-375,368,160,256,31.16,1.009721194177153,35.9,1.0209425117197135,3904.611572265625,-7552.6083984375,32.5,8.126856803894043,0,0.0,0.0,0.0,0.0,20.40603533837645,0.0,0.0,-1.5643939369018698,0.0,0.0,0.0,0.0,13,1.0153318529484332,39.07685953776042,-75.876806640625,-0.4594219392,-9.9565348386,-0.4163511324,-0.31585258320000004,-9.8416793538,0.0143569356,0.0012217265875,-0.129503018275,0.059864602787500006,0.1014033067625,0.0,-0.05375596985,0.09396,1.53294,-0.42108,0.13166,1.49176,-0.2175,-0.3876372612,-9.8991070962,-0.2009970984,0.051312516675,-0.0647515091375,0.003054316468750002,0.11281,1.51235,-0.31929,10.82656,4.7072,7.53152,33.53,-199.80731966341295
147296,15574007,0,-67,-1387,-56,-8,-92,53,162,2643,-726,-40,-1372,4,84,0,-37,227,2572,-375,400,0,240,31.16,1.0099185788304958,35.88,1.0209326424870466,3904.611572265625,-7552.6083984375,32.5,8.162306785583496,0,0.0,0.0,0.0,0.0,20.12456525612893,0.0,0.0,-1.7101356046275753,0.0,0.0,0.0,0.0,13,1.0154256106587711,39.07685953776042,-75.876806640625,-0.4809573426,-9.9565348386,-0.40199419680000004,-0.287138712,-9.848857821600001,0.0287138712,-0.0097738127,-0.11239884605,0.0647515091375,0.10262503335,0.0,-0.0452038837375,0.09396,1.53294,-0.42108,0.13166,1.49176,-0.2175,-0.3840480273,-9.9026963301,-0.1866401628,0.046425610325000005,-0.056199423025,0.009773812699999999,0.11281,1.51235,-0.31929,11.768,0.0,7.0608,33.52,-200.62593634020163
147297,15574112,0,-70,-1383,-52,17,-94,46,172,2663,-748,-51,-1370,5,92,0,-36,263,2555,-350,320,80,224,31.16,1.0099284480631632,35.9,1.020764865531705,3904.611572265625,-7552.6083984375,32.5,8.146798133850098,0,0.0,0.0,0.0,0.0,20.329745268630152,0.0,0.0,-1.578297230617549,0.0,0.0,0.0,0.0,13,1.015346656797434,39.07685953776042,-75.876806640625,-0.502492746,-9.9278209674,-0.3732803256,-0.36610185780000004,-9.834500886,0.035892339,0.0207693519875,-0.114842299225,0.056199423025,0.11239884605,0.0,-0.04398215715,0.09976,1.54454,-0.43384,0.15254,1.4819,-0.203,-0.43429730190000004,-9.881160926700002,-0.1686939933,0.06658409901875,-0.0574211496125,0.0061086329375000005,0.12615,1.51322,-0.31842000000000004,9.4144,2.3536,6.59008,33.53,-199.9365809097405
147298,15574218,0,-61,-1386,-51,6,-100,48,172,2663,-748,-46,-1367,3,91,0,-41,263,2555,-350,384,-48,240,31.17,1.0100074019245004,35.9,1.020764865531705,3904.611572265625,-7552.6083984375,32.5,8.171723365783691,0,0.0,0.0,0.0,0.0,20.343734222482023,0.0,0.0,-1.5598106136528782,0.0,0.0,0.0,0.0,13,1.0153861337281027,39.07685953776042,-75.876806640625,-0.43788653580000003,-9.9493563708,-0.36610185780000004,-0.3302095188,-9.812965482600001,0.0215354034,0.007330359525,-0.12217265875000001,0.0586428762,0.1111771194625,0.0,-0.0500907900875,0.09976,1.54454,-0.43384,0.15254,1.4819,-0.203,-0.3840480273,-9.881160926700002,-0.17228322720000003,0.05925373949375,-0.061086329375000005,0.004276043056249998,0.12615,1.51322,-0.31842000000000004,11.29728,-1.41216,7.0608,33.535,-200.28850531280554
147299,15574323,0,-65,-1387,-56,7,-100,41,137,2641,-748,-37,-1373,5,96,0,-35,244,2554,-375,384,80,336,31.17,1.0098889711324943,35.9,1.020833950160375,3904.611572265625,-7552.6083984375,32.5,8.146798133850098,0,0.0,0.0,0.0,0.0,20.516388885028448,0.0,0.0,-1.4586253885857252,0.0,0.0,0.0,0.0,13,1.0153614606464347,39.07685953776042,-75.876806640625,-0.466600407,-9.9565348386,-0.40199419680000004,-0.26560330860000003,-9.8560362894,0.035892339,0.008552086112500001,-0.12217265875000001,0.0500907900875,0.1172857524,0.0,-0.0427604305625,0.07946,1.53178,-0.43384,0.14152,1.48132,-0.2175,-0.36610185780000004,-9.906285564000001,-0.18305092890000002,0.06291891925625,-0.061086329375000005,0.0036651797625000017,0.11049,1.5065499999999998,-0.32567,11.29728,2.3536,9.88512,33.535,-200.07307154640526
147300,15574429,0,-63,-1384,-50,9,-97,45,137,2641,-748,-43,-1374,4,89,0,-39,244,2554,-375,336,64,208,31.16,1.0097705403404886,35.9,1.0206760424377004,3904.611572265625,-7552.6083984375,32.5,8.14458179473877,0,0.0,0.0,0.0,0.0,21.556275388219188,0.0,0.0,-0.8733474188805613,0.0,0.0,0.0,0.0,13,1.0152232913890944,39.07685953776042,-75.876806640625,-0.45224347140000004,-9.9349994352,-0.35892339,-0.3086741154,-9.8632147572,0.0287138712,0.0109955392875,-0.11850747898750001,0.0549776964375,0.1087336662875,0.0,-0.047647336912500005,0.07946,1.53178,-0.43384,0.14152,1.48132,-0.2175,-0.3804587934,-9.8991070962,-0.1651047594,0.0598646027875,-0.059253739493750006,0.0036651797624999982,0.11049,1.5065499999999998,-0.32567,9.88512,1.88288,6.11936,33.53,-198.85933530821004
147301,15574534,0,-64,-1381,-56,12,-90,48,175,2633,-749,-45,-1375,5,79,0,-42,247,2533,-389,368,32,240,31.16,1.0099185788304958,35.89,1.0209129040217124,3904.611572265625,-7552.6083984375,32.5,8.150120735168457,0,0.0,0.0,0.0,0.0,20.91326962162849,0.0,0.0,-1.2572540933834475,0.0,0.0,0.0,0.0,13,1.015415741426104,39.07685953776042,-75.876806640625,-0.4594219392,-9.9134640318,-0.40199419680000004,-0.323031051,-9.870393225,0.035892339,0.01466071905,-0.109955392875,0.0586428762,0.09651640041250001,0.0,-0.051312516675,0.1015,1.52714,-0.43442000000000003,0.14326,1.4691400000000001,-0.22562000000000001,-0.3912264951,-9.8919286284,-0.18305092890000002,0.05558855973125,-0.0549776964375,0.0036651797624999982,0.12238,1.49814,-0.33002000000000004,10.82656,0.94144,7.0608,33.525,-200.53977040043677
147302,15574639,0,-66,-1378,-51,9,-94,52,154,2631,-733,-40,-1368,6,89,0,-38,247,2533,-389,304,16,288,31.16,1.0097705403404886,35.9,1.020764865531705,3904.611572265625,-7552.6083984375,32.5,8.150120735168457,0,0.0,0.0,0.0,0.0,20.591147285525693,0.0,0.0,-1.442460506548456,0.0,0.0,0.0,0.0,13,1.0152677029360968,39.07685953776042,-75.876806640625,-0.4737788748,-9.8919286284,-0.36610185780000004,-0.287138712,-9.8201439504,0.0430708068,0.0109955392875,-0.114842299225,0.06352978255,0.1087336662875,0.0,-0.046425610325000005,0.08932,1.5259800000000001,-0.42514,0.14326,1.4691400000000001,-0.22562000000000001,-0.3804587934,-9.8560362894,-0.16151552550000003,0.0598646027875,-0.0574211496125,0.008552086112499996,0.11629,1.49756,-0.32538,8.94368,0.47072,8.47296,33.53,-199.2471616729152
147303,15574745,0,-61,-1384,-49,5,-91,38,154,2631,-733,-46,-1373,4,81,0,-36,251,2533,-388,384,64,272,31.16,1.0098791018998272,35.89,1.0206859116703677,3904.611572265625,-7552.6083984375,32.5,8.14458179473877,0,0.0,0.0,0.0,0.0,20.443115500095328,0.0,0.0,-1.5216675772231634,0.0,0.0,0.0,0.0,13,1.0152825067850975,39.07685953776042,-75.876806640625,-0.43788653580000003,-9.9349994352,-0.35174492220000003,-0.3302095188,-9.8560362894,0.0287138712,0.0061086329375000005,-0.1111771194625,0.046425610325000005,0.09895985358750001,0.0,-0.04398215715,0.08932,1.5259800000000001,-0.42514,0.14558,1.4691400000000001,-0.22504,-0.3840480273,-9.8955178623,-0.1615155255,0.0525342432625,-0.05558855973125,0.0012217265875000029,0.11745,1.49756,-0.32509,11.29728,1.88288,8.00224,33.525,-199.37643264056933
147304,15574850,0,-61,-1387,-55,15,-92,44,152,2626,-718,-49,-1370,4,93,0,-42,282,2558,-347,352,64,192,31.16,1.009977794226499,35.9,1.0208240809277078,3904.611572265625,-7552.6083984375,32.5,8.155659675598145,0,0.0,0.0,0.0,0.0,20.110757736814367,0.0,0.0,-1.698078676777955,0.0,0.0,0.0,0.0,13,1.0154009375771034,39.07685953776042,-75.876806640625,-0.43788653580000003,-9.9565348386,-0.394815729,-0.35174492220000003,-9.834500886,0.0287138712,0.0183258988125,-0.11239884605,0.05375596985,0.1136205726375,0.0,-0.051312516675,0.08816,1.52308,-0.41644,0.16356,1.48364,-0.20126,-0.39481572900000006,-9.8955178623,-0.1830509289,0.065973235725,-0.056199423025,0.0012217265874999994,0.12586,1.50336,-0.30884999999999996,10.35584,1.88288,5.64864,33.53,-200.41051962172477
147305,15574956,0,-64,-1383,-54,1,-97,39,152,2626,-718,-48,-1374,5,83,0,-39,282,2558,-347,336,112,288,31.16,1.0100370096225018,35.89,1.020903034789045,3904.611572265625,-7552.6083984375,32.5,8.160091400146484,0,0.0,0.0,0.0,0.0,20.457484167943605,0.0,0.0,-1.5093329143136616,0.0,0.0,0.0,0.0,13,1.0154700222057733,39.07685953776042,-75.876806640625,-0.4594219392,-9.9278209674,-0.3876372612,-0.3445664544,-9.8632147572,0.035892339,0.0012217265875,-0.11850747898750001,0.047647336912500005,0.1014033067625,0.0,-0.047647336912500005,0.08816,1.52308,-0.41644,0.16356,1.48364,-0.20126,-0.40199419680000004,-9.8955178623,-0.17587246110000002,0.051312516675,-0.059253739493750006,0.0,0.12586,1.50336,-0.30884999999999996,9.88512,3.29504,8.47296,33.525,-201.0136707340123
147306,15575061,0,-63,-1382,-56,13,-86,52,151,2643,-749,-43,-1373,5,89,0,-43,248,2549,-359,336,96,240,31.17,1.0100074019245004,35.89,1.0208536886257094,3904.611572265625,-7552.6083984375,32.5,8.154552459716797,0,0.0,0.0,0.0,0.0,20.267253972955,0.0,0.0,-1.6115055379361416,0.0,0.0,0.0,0.0,13,1.015430545275105,39.07685953776042,-75.876806640625,-0.45224347140000004,-9.9206424996,-0.40199419680000004,-0.3086741154,-9.8560362894,0.035892339,0.0158824456375,-0.105068486525,0.06352978255,0.1087336662875,0.0,-0.0525342432625,0.08758,1.53294,-0.43442000000000003,0.14384,1.47842,-0.20822,-0.3804587934,-9.8883393945,-0.18305092890000002,0.0623080559625,-0.0525342432625,0.005497769643749997,0.11571000000000001,1.50568,-0.32132,9.88512,2.82432,7.0608,33.53,-200.67627039101623
147307,15575166,0,-63,-1383,-55,3,-93,44,151,2643,-749,-42,-1373,3,86,0,-38,248,2549,-359,416,-16,256,31.17,1.0097902788058228,35.9,1.0206266962743646,3904.611572265625,-7552.6083984375,32.5,8.14458179473877,0,0.0,0.0,0.0,0.0,20.61900236725063,0.0,0.0,-1.405785219411796,0.0,0.0,0.0,0.0,13,1.0152084875400937,39.07685953776042,-75.876806640625,-0.45224347140000004,-9.9278209674,-0.394815729,-0.3014956476,-9.8560362894,0.0215354034,0.0036651797625,-0.1136205726375,0.05375596985,0.105068486525,0.0,-0.046425610325000005,0.08758,1.53294,-0.43442000000000003,0.14384,1.47842,-0.20822,-0.3768695595,-9.8919286284,-0.1866401628,0.05436683314375,-0.05681028631875,0.0036651797624999982,0.11571000000000001,1.50568,-0.32132,12.23872,-0.47072,7.53152,33.535,-198.7372431038345
147308,15575272,0,-65,-1383,-54,11,-89,41,161,2632,-779,-42,-1374,5,87,0,-40,267,2555,-382,336,160,208,31.16,1.010046878855169,35.9,1.0207846039970392,3904.611572265625,-7552.6083984375,32.5,8.14458179473877,0,0.0,0.0,0.0,0.0,20.196567038557657,0.0,0.0,-1.636802968245639,0.0,0.0,0.0,0.0,13,1.015415741426104,39.07685953776042,-75.876806640625,-0.466600407,-9.9278209674,-0.3876372612,-0.3014956476,-9.8632147572,0.035892339,0.0134389924625,-0.1087336662875,0.0500907900875,0.1062902131125,0.0,-0.048869063500000004,0.09338,1.52656,-0.45182,0.15486,1.4819,-0.22156,-0.3840480273,-9.8955178623,-0.17587246110000002,0.0598646027875,-0.05436683314375,0.0006108632937499997,0.12412000000000001,1.50423,-0.33669,9.88512,4.7072,6.11936,33.53,-200.53977040043677
147309,15575377,0,-63,-1384,-49,12,-91,42,161,2632,-779,-42,-1373,5,92,0,-42,267,2555,-382,304,80,288,31.17,1.0099580557611645,35.89,1.0209721194177153,3904.611572265625,-7552.6083984375,32.5,8.158430099487305,0,0.0,0.0,0.0,0.0,20.054163259217034,0.0,0.0,-1.7046760247105128,0.0,0.0,0.0,0.0,13,1.01546508758944,39.07685953776042,-75.876806640625,-0.45224347140000004,-9.9349994352,-0.35174492220000003,-0.3014956476,-9.8560362894,0.035892339,0.01466071905,-0.1111771194625,0.051312516675,0.11239884605,0.0,-0.051312516675,0.09338,1.52656,-0.45182,0.15486,1.4819,-0.22156,-0.3768695595,-9.8955178623,-0.15792629160000002,0.06352978255,-0.05558855973125,0.0,0.12412000000000001,1.50423,-0.33669,8.94368,2.3536,8.47296,33.53,-200.97785149617408
147310,15575482,0,-57,-1381,-54,7,-98,37,148,2643,-735,-45,-1373,5,87,0,-39,257,2556,-385,368,112,224,31.16,1.0099185788304958,35.88,1.0209819886503824,3904.611572265625,-7552.6083984375,32.5,8.153444290161133,0,0.0,0.0,0.0,0.0,20.165339837364805,0.0,0.0,-1.628318316723001,0.0,0.0,0.0,0.0,13,1.015450283740439,39.07685953776042,-75.876806640625,-0.4091726646,-9.9134640318,-0.3876372612,-0.323031051,-9.8560362894,0.035892339,0.008552086112500001,-0.11972920557500001,0.0452038837375,0.1062902131125,0.0,-0.047647336912500005,0.08584,1.53294,-0.4263,0.14906,1.48248,-0.2233,-0.36610185780000004,-9.8847501606,-0.17587246110000002,0.0574211496125,-0.059864602787500006,-0.0012217265875000029,0.11745,1.5077099999999999,-0.3248,10.82656,3.29504,6.59008,33.52,-200.84134682865184
147311,15575588,0,-65,-1388,-58,4,-88,39,148,2643,-735,-44,-1373,5,88,0,-38,257,2556,-385,400,16,272,31.16,1.0097705403404886,35.9,1.0206661732050333,3904.611572265625,-7552.6083984375,32.5,8.17116928100586,0,0.0,0.0,0.0,0.0,20.113914668434678,0.0,0.0,-1.6403577892272838,0.0,0.0,0.0,0.0,13,1.015218356772761,39.07685953776042,-75.876806640625,-0.466600407,-9.9637133064,-0.4163511324,-0.31585258320000004,-9.8560362894,0.035892339,0.00488690635,-0.1075119397,0.047647336912500005,0.1075119397,0.0,-0.046425610325000005,0.08584,1.53294,-0.4263,0.14906,1.48248,-0.2233,-0.3912264951,-9.9098747979,-0.1902293967,0.056199423025,-0.05375596985,0.0006108632937499997,0.11745,1.5077099999999999,-0.3248,11.768,0.47072,8.00224,33.53,-198.81624224339913
147312,15575693,0,-66,-1379,-50,14,-94,53,162,2640,-727,-46,-1378,7,90,0,-39,244,2562,-412,368,48,208,31.16,1.009859363434493,35.9,1.0207253886010363,3904.611572265625,-7552.6083984375,32.5,8.127964973449707,0,0.0,0.0,0.0,0.0,20.122606698810973,0.0,0.0,-1.621188645040193,0.0,0.0,0.0,0.0,13,1.0152923760177646,39.07685953776042,-75.876806640625,-0.4737788748,-9.8991070962,-0.35892339,-0.3302095188,-9.8919286284,0.050249274600000005,0.017104172225000002,-0.114842299225,0.0647515091375,0.109955392875,0.0,-0.047647336912500005,0.09396,1.5312000000000001,-0.42166,0.14152,1.48596,-0.23896,-0.40199419680000004,-9.8955178623,-0.1543370577,0.06352978255,-0.0574211496125,0.008552086112499996,0.11774000000000001,1.50858,-0.33031,10.82656,1.41216,6.11936,33.53,-199.4626120392755
147313,15575799,0,-63,-1385,-53,6,-101,39,162,2640,-727,-45,-1367,5,99,0,-49,244,2562,-412,368,16,320,31.15,1.0099087095978287,35.88,1.0209425117197135,3904.611572265625,-7552.6083984375,32.5,8.158430099487305,0,0.0,0.0,0.0,0.0,20.017870371827065,0.0,0.0,-1.6651819161912076,0.0,0.0,0.0,0.0,13,1.0154256106587711,39.07685953776042,-75.876806640625,-0.45224347140000004,-9.942177903000001,-0.3804587934,-0.323031051,-9.812965482600001,0.035892339,0.007330359525,-0.12339438533750001,0.047647336912500005,0.12095093216250001,0.0,-0.059864602787500006,0.09396,1.5312000000000001,-0.42166,0.14152,1.48596,-0.23896,-0.3876372612,-9.8775716928,-0.1722832272,0.06414064584375001,-0.061697192668750005,-0.0061086329375000005,0.11774000000000001,1.50858,-0.33031,10.82656,0.47072,9.4144,33.515,-200.61868630121702
147314,15575904,0,-63,-1385,-52,11,-90,47,152,2629,-751,-40,-1375,4,86,0,-43,269,2551,-375,416,80,256,31.17,1.0098988403651616,35.89,1.0209129040217124,3904.611572265625,-7552.6083984375,32.5,8.137935638427734,0,0.0,0.0,0.0,0.0,20.361273873073355,0.0,0.0,-1.4629382991450954,0.0,0.0,0.0,0.0,13,1.015405872193437,39.07685953776042,-75.876806640625,-0.45224347140000004,-9.942177903000001,-0.3732803256,-0.287138712,-9.870393225,0.0287138712,0.0134389924625,-0.109955392875,0.0574211496125,0.105068486525,0.0,-0.0525342432625,0.08816,1.52482,-0.43558,0.15602,1.4795800000000001,-0.2175,-0.36969109170000003,-9.906285564000001,-0.1722832272,0.05925373949375,-0.0549776964375,0.002443453174999999,0.12209,1.5022000000000002,-0.32654,12.23872,2.3536,7.53152,33.53,-200.46084783975707
147315,15576009,0,-59,-1384,-58,6,-94,43,152,2629,-751,-46,-1378,5,76,0,-35,269,2551,-375,304,64,224,31.17,1.0098988403651616,35.88,1.0210412040463854,3904.611572265625,-7552.6083984375,32.5,8.154552459716797,0,0.0,0.0,0.0,0.0,20.02276136605688,0.0,0.0,-1.649139223922041,0.0,0.0,0.0,0.0,13,1.0154700222057735,39.07685953776042,-75.876806640625,-0.4235296002,-9.9349994352,-0.4163511324,-0.3302095188,-9.8919286284,0.035892339,0.007330359525,-0.114842299225,0.0525342432625,0.09285122065000001,0.0,-0.0427604305625,0.08816,1.52482,-0.43558,0.15602,1.4795800000000001,-0.2175,-0.3768695595,-9.9134640318,-0.1902293967,0.0500907900875,-0.0574211496125,0.004886906350000001,0.12209,1.5022000000000002,-0.32654,8.94368,1.88288,6.59008,33.525000000000006,-201.02093351442485
147316,15576115,0,-68,-1387,-53,12,-92,45,164,2648,-745,-39,-1373,5,95,0,-40,255,2562,-371,240,96,224,31.17,1.0099580557611645,35.9,1.020893165556378,3904.611572265625,-7552.6083984375,32.5,8.153444290161133,0,0.0,0.0,0.0,0.0,19.96918427882734,0.0,0.0,-1.6677073990670512,0.0,0.0,0.0,0.0,13,1.0154256106587711,39.07685953776042,-75.876806640625,-0.48813581040000004,-9.9565348386,-0.3804587934,-0.2799602442,-9.8560362894,0.035892339,0.01466071905,-0.11239884605,0.0549776964375,0.1160640258125,0.0,-0.048869063500000004,0.09512,1.53584,-0.4321,0.1479,1.48596,-0.21518,-0.3840480273,-9.906285564000001,-0.1722832272,0.06536237243125,-0.056199423025,0.0030543164687499985,0.12151,1.5109,-0.32364,7.0608,2.82432,6.59008,33.535,-200.63318637918624
147317,15576220,0,-66,-1383,-53,3,-91,43,164,2648,-745,-37,-1376,5,100,0,-34,255,2562,-371,336,96,208,31.17,1.0100567480878362,35.9,1.020833950160375,3904.611572265625,-7552.6083984375,32.5,8.145135879516602,0,0.0,0.0,0.0,0.0,20.30462101091121,0.0,0.0,-1.4715003065619097,0.0,0.0,0.0,0.0,13,1.0154453491241056,39.07685953776042,-75.876806640625,-0.4737788748,-9.9278209674,-0.3804587934,-0.26560330860000003,-9.8775716928,0.035892339,0.0036651797625,-0.1111771194625,0.0525342432625,0.12217265875000001,0.0,-0.041538703975,0.09512,1.53584,-0.4321,0.1479,1.48596,-0.21518,-0.36969109170000003,-9.9026963301,-0.1722832272,0.06291891925625001,-0.05558855973125,0.005497769643750001,0.12151,1.5109,-0.32364,9.88512,2.82432,6.11936,33.535,-200.8055209312698
147318,15576326,0,-57,-1385,-51,9,-93,51,171,2646,-739,-47,-1369,5,93,0,-39,250,2540,-385,384,48,272,31.17,1.010115963483839,35.88,1.0208832963237109,3904.611572265625,-7552.6083984375,32.5,8.162306785583496,0,0.0,0.0,0.0,0.0,19.981510813269107,0.0,0.0,-1.6485817568722512,0.0,0.0,0.0,0.0,13,1.015499629903775,39.07685953776042,-75.876806640625,-0.4091726646,-9.942177903000001,-0.36610185780000004,-0.3373879866,-9.8273224182,0.035892339,0.0109955392875,-0.1136205726375,0.062308055962500004,0.1136205726375,0.0,-0.047647336912500005,0.09918,1.53468,-0.42862,0.145,1.4732,-0.2233,-0.3732803256,-9.8847501606,-0.16510475940000002,0.0623080559625,-0.05681028631875,0.007330359525,0.12209,1.50394,-0.32596,11.29728,1.41216,8.00224,33.525000000000006,-201.2794203911165
147319,15576431,0,-63,-1384,-55,19,-91,47,171,2646,-739,-44,-1371,5,88,0,-40,233,2577,-370,336,-16,144,31.16,1.0099679249938318,35.9,1.0207846039970392,3904.611572265625,-7552.6083984375,32.5,8.157876014709473,0,0.0,0.0,0.0,0.0,20.234562948168215,0.0,0.0,-1.4959690410938218,0.0,0.0,0.0,0.0,13,1.0153762644954356,39.07685953776042,-75.876806640625,-0.45224347140000004,-9.9349994352,-0.394815729,-0.31585258320000004,-9.8416793538,0.035892339,0.023212805162500003,-0.1111771194625,0.0574211496125,0.1075119397,0.0,-0.048869063500000004,0.09918,1.53468,-0.42862,0.13514,1.49466,-0.2146,-0.38404802730000004,-9.8883393945,-0.179461695,0.06536237243125001,-0.05558855973125,0.004276043056249998,0.11716000000000001,1.5146700000000002,-0.32161,9.88512,-0.47072,4.23648,33.53,-200.19509667288858
147320,15576536,0,-59,-1382,-51,17,-95,40,151,2651,-762,-47,-1372,4,87,0,-44,233,2577,-370,352,64,288,31.16,1.0100370096225018,35.88,1.0209819886503824,3904.611572265625,-7552.6083984375,32.5,8.142366409301758,0,0.0,0.0,0.0,0.0,20.140595252981004,0.0,0.0,-1.5447085698346346,0.0,0.0,0.0,0.0,13,1.0155094991364422,39.07685953776042,-75.876806640625,-0.4235296002,-9.9206424996,-0.36610185780000004,-0.3373879866,-9.848857821600001,0.0287138712,0.0207693519875,-0.1160640258125,0.048869063500000004,0.1062902131125,0.0,-0.05375596985,0.08758,1.53758,-0.44196,0.13514,1.49466,-0.2146,-0.3804587934,-9.8847501606,-0.1686939933,0.06352978255,-0.05803201290625,-0.002443453174999999,0.11136000000000001,1.51612,-0.32828,10.35584,1.88288,8.47296,33.52,-201.35830658439414
147321,15576642,0,-64,-1384,-56,20,-94,47,177,2647,-760,-34,-1372,4,90,0,-44,256,2538,-367,352,128,208,31.17,1.0099383172958305,35.88,1.0208832963237109,3904.611572265625,-7552.6083984375,32.5,8.157876014709473,0,0.0,0.0,0.0,0.0,20.9323105735627,0.0,0.0,-1.1021466764994887,0.0,0.0,0.0,0.0,13,1.0154108068097707,39.07685953776042,-75.876806640625,-0.4594219392,-9.9349994352,-0.40199419680000004,-0.24406790520000002,-9.848857821600001,0.0287138712,0.024434531750000002,-0.114842299225,0.0574211496125,0.109955392875,0.0,-0.05375596985,0.10266,1.53526,-0.4408,0.14848,1.47204,-0.21286,-0.35174492220000003,-9.8919286284,-0.1866401628,0.0671949623125,-0.0574211496125,0.0018325898812499991,0.12557000000000001,1.50365,-0.32683,10.35584,3.76576,6.11936,33.525000000000006,-200.50393284843906
147322,15576747,0,-61,-1383,-56,0,-94,54,177,2647,-760,-44,-1372,4,80,0,-44,256,2538,-367,416,48,320,31.16,1.0099284480631632,35.89,1.0207944732297063,3904.611572265625,-7552.6083984375,32.5,8.14458179473877,0,0.0,0.0,0.0,0.0,20.203964926676463,0.0,0.0,-1.515758215638309,0.0,0.0,0.0,0.0,13,1.0153614606464347,39.07685953776042,-75.876806640625,-0.43788653580000003,-9.9278209674,-0.40199419680000004,-0.31585258320000004,-9.848857821600001,0.0287138712,0.0,-0.114842299225,0.06597323572500001,0.09773812700000001,0.0,-0.05375596985,0.10266,1.53526,-0.4408,0.14848,1.47204,-0.21286,-0.3768695595,-9.8883393945,-0.1866401628,0.048869063500000004,-0.0574211496125,0.006108632937500004,0.12557000000000001,1.50365,-0.32683,12.23872,1.41216,9.4144,33.525,-200.06583991287653
147323,15576853,0,-64,-1387,-52,8,-90,43,152,2631,-782,-47,-1371,4,85,0,-39,247,2529,-353,352,-16,304,31.16,1.0098396249691586,35.88,1.0210017271157168,3904.611572265625,-7552.6083984375,32.5,8.166738510131836,0,0.0,0.0,0.0,0.0,19.95872548621112,0.0,0.0,-1.6418563938805488,0.0,0.0,0.0,0.0,13,1.0154206760424378,39.07685953776042,-75.876806640625,-0.4594219392,-9.9565348386,-0.3732803256,-0.3373879866,-9.8416793538,0.0287138712,0.0097738127,-0.109955392875,0.0525342432625,0.1038467599375,0.0,-0.047647336912500005,0.08816,1.5259800000000001,-0.45356,0.14326,1.46682,-0.20474,-0.39840496290000005,-9.8991070962,-0.1722832272,0.05681028631875,-0.0549776964375,0.002443453174999999,0.11571000000000001,1.4964,-0.32915,10.35584,-0.47072,8.94368,33.52,-200.5828534949242
147324,15576958,0,-67,-1383,-51,-1,-101,46,152,2631,-782,-43,-1372,4,94,0,-40,247,2529,-353,336,128,272,31.16,1.0099185788304958,35.9,1.0209425117197135,3904.611572265625,-7552.6083984375,32.5,8.145135879516602,0,0.0,0.0,0.0,0.0,19.91007849483387,0.0,0.0,-1.6596755048131695,0.0,0.0,0.0,0.0,13,1.0154305452751047,39.07685953776042,-75.876806640625,-0.4809573426,-9.9278209674,-0.36610185780000004,-0.3086741154,-9.848857821600001,0.0287138712,-0.0012217265875,-0.12339438533750001,0.056199423025,0.114842299225,0.0,-0.048869063500000004,0.08816,1.5259800000000001,-0.45356,0.14326,1.46682,-0.20474,-0.394815729,-9.8883393945,-0.1686939933,0.05681028631875,-0.061697192668750005,0.0036651797624999982,0.11571000000000001,1.4964,-0.32915,9.88512,3.76576,8.00224,33.53,-200.66901893628466
147325,15577063,0,-68,-1388,-55,4,-83,42,154,2635,-728,-48,-1373,5,90,0,-43,244,2548,-368,368,128,224,31.16,1.0098889711324943,35.88,1.0208832963237109,3904.611572265625,-7552.6083984375,32.5,8.14292049407959,0,0.0,0.0,0.0,0.0,19.915633945302048,0.0,0.0,-1.6433773197414394,0.0,0.0,0.0,0.0,13,1.0153861337281027,39.07685953776042,-75.876806640625,-0.48813581040000004,-9.9637133064,-0.394815729,-0.3445664544,-9.8560362894,0.035892339,0.00488690635,-0.1014033067625,0.051312516675,0.109955392875,0.0,-0.0525342432625,0.08932,1.5283,-0.42224,0.14152,1.47784,-0.21344,-0.4163511324,-9.9098747979,-0.179461695,0.0574211496125,-0.05070165338125,-0.0006108632937499997,0.11542,1.5030700000000001,-0.31784,10.82656,3.76576,6.59008,33.52,-200.28126660009153
147326,15577169,0,-67,-1388,-57,6,-94,54,154,2635,-728,-41,-1366,4,89,0,-39,244,2548,-368,384,-16,320,31.16,1.0100863557858375,35.88,1.020893165556378,3904.611572265625,-7552.6083984375,32.5,8.153444290161133,0,0.0,0.0,0.0,0.0,19.882762113844613,0.0,0.0,-1.6516860021122428,0.0,0.0,0.0,0.0,13,1.0154897606711077,39.07685953776042,-75.876806640625,-0.4809573426,-9.9637133064,-0.4091726646,-0.2943171798,-9.8057870148,0.0287138712,0.007330359525,-0.114842299225,0.06597323572500001,0.1087336662875,0.0,-0.047647336912500005,0.08932,1.5283,-0.42224,0.14152,1.47784,-0.21344,-0.38763726119999997,-9.8847501606,-0.1902293967,0.05803201290625,-0.0574211496125,0.009162949406250002,0.11542,1.5030700000000001,-0.31784,11.29728,-0.47072,9.4144,33.52,-201.18599065253764
147327,15577274,0,-63,-1384,-49,12,-91,47,161,2646,-737,-42,-1374,3,87,0,-39,261,2535,-363,272,80,240,31.16,1.0100764865531704,35.87,1.0208635578583765,3904.611572265625,-7552.6083984375,32.5,8.167845726013184,0,0.0,0.0,0.0,0.0,20.064125041025957,0.0,0.0,-1.540750431265418,0.0,0.0,0.0,0.0,13,1.0154700222057733,39.07685953776042,-75.876806640625,-0.45224347140000004,-9.9349994352,-0.35174492220000003,-0.3014956476,-9.8632147572,0.0215354034,0.01466071905,-0.1111771194625,0.0574211496125,0.1062902131125,0.0,-0.047647336912500005,0.09338,1.53468,-0.42746,0.15138000000000001,1.4703,-0.21054,-0.3768695595,-9.8991070962,-0.16510475940000002,0.06047546608125,-0.05558855973125,0.004886906349999998,0.12238000000000002,1.5024899999999999,-0.319,8.00224,2.3536,7.0608,33.515,-201.0136707340123
147328,15577379,0,-71,-1383,-51,6,-97,48,161,2646,-737,-41,-1370,4,90,0,-40,261,2535,-363,352,80,320,31.16,1.0100172711571676,35.88,1.0208438193930425,3904.611572265625,-7552.6083984375,32.5,8.153444290161133,0,0.0,0.0,0.0,0.0,19.891449724048623,0.0,0.0,-1.6296501104368954,0.0,0.0,0.0,0.0,13,1.015430545275105,39.07685953776042,-75.876806640625,-0.5096712138,-9.9278209674,-0.36610185780000004,-0.2943171798,-9.834500886,0.0287138712,0.007330359525,-0.11850747898750001,0.0586428762,0.109955392875,0.0,-0.048869063500000004,0.09338,1.53468,-0.42746,0.15138000000000001,1.4703,-0.21054,-0.40199419680000004,-9.881160926700002,-0.1686939933,0.0586428762,-0.059253739493750006,0.004886906349999998,0.12238000000000002,1.5024899999999999,-0.319,10.35584,2.3536,9.4144,33.52,-200.66901893628466
147329,15577484,0,-66,-1383,-51,8,-95,40,169,2620,-785,-48,-1372,5,84,0,-35,239,2569,-337,272,160,208,31.16,1.0100764865531704,35.89,1.0208536886257094,3904.611572265625,-7552.6083984375,32.5,8.127964973449707,0,0.0,0.0,0.0,0.0,19.697276353466368,0.0,0.0,-1.727044289968414,0.0,0.0,0.0,0.0,13,1.01546508758944,39.07685953776042,-75.876806640625,-0.4737788748,-9.9278209674,-0.36610185780000004,-0.3445664544,-9.848857821600001,0.035892339,0.0097738127,-0.1160640258125,0.048869063500000004,0.10262503335,0.0,-0.0427604305625,0.09802,1.5196,-0.4553,0.13862,1.49002,-0.19546,-0.4091726646,-9.8883393945,-0.16510475940000002,0.056199423025,-0.05803201290625,0.003054316468750002,0.11832,1.50481,-0.32538,8.00224,4.7072,6.11936,33.525,-200.970590131443
147330,15577589,0,-71,-1383,-54,10,-102,42,169,2620,-785,-43,-1372,4,93,0,-36,239,2569,-337,352,-16,288,31.17,1.0100074019245004,35.88,1.021011596348384,3904.611572265625,-7552.6083984375,32.5,8.161199569702148,0,0.0,0.0,0.0,0.0,19.784257412010632,0.0,0.0,-1.6656680198703415,0.0,0.0,0.0,0.0,13,1.0155094991364422,39.07685953776042,-75.876806640625,-0.5096712138,-9.9278209674,-0.3876372612,-0.3086741154,-9.848857821600001,0.0287138712,0.012217265875000001,-0.12461611192500001,0.051312516675,0.1136205726375,0.0,-0.04398215715,0.09802,1.5196,-0.4553,0.13862,1.49002,-0.19546,-0.4091726646,-9.8883393945,-0.179461695,0.06291891925625,-0.062308055962500004,0.0036651797625000017,0.11832,1.50481,-0.32538,10.35584,-0.47072,8.47296,33.525000000000006,-201.36558068996362
147331,15577695,0,-67,-1387,-53,6,-94,42,163,2637,-770,-46,-1369,2,88,0,-41,255,2553,-393,336,-16,224,31.16,1.0099185788304958,35.88,1.0209425117197135,3904.611572265625,-7552.6083984375,32.5,8.147905349731445,0,0.0,0.0,0.0,0.0,19.884201423054925,0.0,0.0,-1.5973472445937371,0.0,0.0,0.0,0.0,13,1.0154305452751047,39.07685953776042,-75.876806640625,-0.4809573426,-9.9565348386,-0.3804587934,-0.3302095188,-9.8273224182,0.0143569356,0.007330359525,-0.114842299225,0.051312516675,0.1075119397,0.0,-0.0500907900875,0.09454,1.52946,-0.4466,0.1479,1.48074,-0.22794,-0.4055834307,-9.891928628399999,-0.1830509289,0.0574211496125,-0.0574211496125,0.0006108632937499997,0.12122,1.5051,-0.33727,9.88512,-0.47072,6.59008,33.52,-200.66901893628466
147332,15577800,0,-67,-1387,-57,-2,-90,50,163,2637,-770,-48,-1378,4,86,0,-37,255,2553,-393,272,112,272,31.18,1.0096422403158154,35.88,1.021011596348384,3904.611572265625,-7552.6083984375,32.5,8.160091400146484,0,0.0,0.0,0.0,0.0,20.14278005323936,0.0,0.0,-1.4442246594549546,0.0,0.0,0.0,0.0,13,1.0153269183320996,39.07685953776042,-75.876806640625,-0.4809573426,-9.9565348386,-0.4091726646,-0.3445664544,-9.8919286284,0.0287138712,-0.002443453175,-0.109955392875,0.061086329375000005,0.105068486525,0.0,-0.0452038837375,0.09454,1.52946,-0.4466,0.1479,1.48074,-0.22794,-0.4127618985,-9.924231733500001,-0.1902293967,0.051312516675,-0.0549776964375,0.007941222818750003,0.12122,1.5051,-0.33727,8.00224,3.29504,8.00224,33.53,-199.77867552745823
147333,15577905,0,-69,-1383,-54,10,-97,45,174,2638,-740,-45,-1374,4,85,0,-42,301,2576,-358,352,64,288,31.17,1.0098988403651616,35.88,1.020893165556378,3904.611572265625,-7552.6083984375,32.5,8.14458179473877,0,0.0,0.0,0.0,0.0,19.86299923861335,0.0,0.0,-1.5979418211375598,0.0,0.0,0.0,0.0,13,1.0153960029607698,39.07685953776042,-75.876806640625,-0.4953142782,-9.9278209674,-0.3876372612,-0.323031051,-9.8632147572,0.0287138712,0.012217265875000001,-0.11850747898750001,0.0549776964375,0.1038467599375,0.0,-0.051312516675,0.10092,1.53004,-0.4292,0.17458,1.49408,-0.20764,-0.4091726646,-9.8955178623,-0.179461695,0.05803201290625,-0.059253739493750006,0.0018325898812499991,0.13775,1.51206,-0.31842000000000004,10.35584,1.88288,8.47296,33.525000000000006,-200.37467707472808
147334,15578011,0,-65,-1386,-47,4,-97,39,174,2638,-740,-40,-1368,4,83,0,-37,301,2576,-358,304,64,256,31.16,1.0099284480631632,35.86,1.0192746113989637,3904.611572265625,-7552.6083984375,32.5,8.162306785583496,0,0.0,0.0,0.0,0.0,21.09304655463037,0.0,0.0,-0.9001222561519606,0.0,0.0,0.0,0.0,13,1.0146015297310633,39.07685953776042,-75.876806640625,-0.466600407,-9.9493563708,-0.3373879866,-0.287138712,-9.8201439504,0.0287138712,0.00488690635,-0.11850747898750001,0.047647336912500005,0.1014033067625,0.0,-0.0452038837375,0.10092,1.53004,-0.4292,0.17458,1.49408,-0.20764,-0.3768695595,-9.8847501606,-0.1543370577,0.05314510655625,-0.059253739493750006,0.0012217265875000029,0.13775,1.51206,-0.31842000000000004,8.94368,1.88288,7.53152,33.51,-193.42764494043902
147335,15578116,0,-61,-1381,-53,5,-94,56,175,2629,-788,-42,-1381,1,84,0,-42,237,2570,-352,368,48,288,31.16,1.0099679249938318,35.88,1.020903034789045,3904.611572265625,-7552.6083984375,32.5,8.166738510131836,0,0.0,0.0,0.0,0.0,20.118155020694203,0.0,0.0,-1.4664017223794252,0.0,0.0,0.0,0.0,13,1.0154354798914385,39.07685953776042,-75.876806640625,-0.43788653580000003,-9.9134640318,-0.3804587934,-0.3014956476,-9.9134640318,0.0071784678,0.0061086329375000005,-0.114842299225,0.06841668890000001,0.10262503335,0.0,-0.051312516675,0.1015,1.52482,-0.45704,0.13746,1.4906,-0.20416,-0.36969109170000003,-9.9134640318,-0.1866401628,0.05436683314375,-0.0574211496125,0.008552086112500003,0.11948,1.5077099999999999,-0.3306,10.82656,1.41216,8.47296,33.52,-200.71210128316807
147336,15578222,0,-62,-1385,-54,7,-88,40,175,2629,-788,-40,-1370,5,97,0,-36,253,2556,-358,448,48,272,31.16,1.009977794226499,35.88,1.0209622501850482,3904.611572265625,-7552.6083984375,32.5,8.155659675598145,0,0.0,0.0,0.0,0.0,19.84974888891492,0.0,0.0,-1.6129334150145456,0.0,0.0,0.0,0.0,13,1.0154700222057735,39.07685953776042,-75.876806640625,-0.4450650036,-9.942177903000001,-0.3876372612,-0.287138712,-9.834500886,0.035892339,0.008552086112500001,-0.1075119397,0.048869063500000004,0.11850747898750001,0.0,-0.04398215715,0.1015,1.52482,-0.45704,0.14674,1.48248,-0.20764,-0.36610185780000004,-9.8883393945,-0.17587246110000002,0.06352978255000001,-0.05375596985,0.0024434531750000023,0.12412000000000001,1.50365,-0.33233999999999997,13.18016,1.41216,8.00224,33.52,-201.0136707340123
147337,15578327,0,-64,-1387,-50,12,-109,47,156,2641,-733,-39,-1380,4,86,0,-41,253,2556,-358,352,32,272,31.16,1.010046878855169,35.88,1.0208438193930425,3904.611572265625,-7552.6083984375,32.5,8.13073444366455,0,0.0,0.0,0.0,0.0,20.091011074632583,0.0,0.0,-1.4669790506950546,0.0,0.0,0.0,0.0,13,1.0154453491241058,39.07685953776042,-75.876806640625,-0.4594219392,-9.9565348386,-0.35892339,-0.2799602442,-9.906285564000001,0.0287138712,0.01466071905,-0.13316819803750002,0.0574211496125,0.105068486525,0.0,-0.0500907900875,0.09048,1.53178,-0.42514,0.14674,1.48248,-0.20764,-0.36969109170000003,-9.9314102013,-0.1651047594,0.0598646027875,-0.06658409901875001,0.0036651797624999982,0.11861000000000001,1.50713,-0.31639,10.35584,0.94144,8.00224,33.52,-200.79826522935164
147338,15578432,0,-65,-1382,-52,13,-94,37,156,2641,-733,-38,-1371,3,86,0,-47,245,2539,-384,336,16,160,31.16,1.0101554404145077,35.86,1.0191759190722922,3904.611572265625,-7552.6083984375,32.5,8.153444290161133,0,0.0,0.0,0.0,0.0,21.035452268425846,0.0,0.0,-0.9290589275470178,0.0,0.0,0.0,0.0,13,1.0146656797434,39.07685953776042,-75.876806640625,-0.466600407,-9.9206424996,-0.3732803256,-0.2727817764,-9.8416793538,0.0215354034,0.0158824456375,-0.114842299225,0.0452038837375,0.105068486525,0.0,-0.0574211496125,0.09048,1.53178,-0.42514,0.1421,1.47262,-0.22272,-0.36969109170000003,-9.8811609267,-0.17587246110000002,0.06047546608125,-0.0574211496125,-0.0061086329375000005,0.11629,1.5022,-0.32393,9.88512,0.47072,4.7072,33.51,-193.98824071227727
147339,15578538,0,-64,-1380,-53,19,-91,45,148,2598,-751,-41,-1369,4,86,0,-32,245,2539,-384,352,0,272,31.16,1.0099284480631632,35.88,1.020893165556378,3904.611572265625,-7552.6083984375,32.5,8.153444290161133,0,0.0,0.0,0.0,0.0,20.085587697845703,0.0,0.0,-1.4777420627560938,0.0,0.0,0.0,0.0,13,1.0154108068097707,39.07685953776042,-75.876806640625,-0.4594219392,-9.906285564000001,-0.3804587934,-0.2943171798,-9.8273224182,0.0287138712,0.023212805162500003,-0.1111771194625,0.0549776964375,0.105068486525,0.0,-0.0390952508,0.08584,1.50684,-0.43558,0.1421,1.47262,-0.22272,-0.3768695595,-9.8668039911,-0.1758724611,0.06414064584375001,-0.05558855973125,0.00794122281875,0.11397,1.48973,-0.32915,10.35584,0.0,8.00224,33.52,-200.49668705674452
147340,15578643,0,-61,-1380,-59,10,-85,40,148,2658,-780,-43,-1370,3,88,0,-39,247,2537,-335,384,128,240,31.16,1.0101357019491737,35.88,1.0208438193930425,3904.611572265625,-7552.6083984375,32.5,8.145689964294434,0,0.0,0.0,0.0,0.0,20.63962395950121,0.0,0.0,-1.1704496641241915,0.0,0.0,0.0,0.0,13,1.015489760671108,39.07685953776042,-75.876806640625,-0.43788653580000003,-9.906285564000001,-0.4235296002,-0.3086741154,-9.834500886,0.0215354034,0.012217265875000001,-0.1038467599375,0.048869063500000004,0.1075119397,0.0,-0.047647336912500005,0.08584,1.54164,-0.4524,0.14326,1.47146,-0.1943,-0.3732803256,-9.870393225,-0.20099709840000002,0.0598646027875,-0.05192337996875,0.0006108632937499997,0.11455,1.5065499999999998,-0.32335,11.29728,3.76576,7.0608,33.52,-201.18599065253764
147341,15578749,0,-63,-1384,-52,12,-94,36,148,2658,-780,-43,-1374,5,85,0,-45,247,2537,-335,336,96,240,31.16,1.009859363434493,35.88,1.0209819886503824,3904.611572265625,-7552.6083984375,32.5,8.153444290161133,0,0.0,0.0,0.0,0.0,20.446270218416448,0.0,0.0,-1.2975316156885957,0.0,0.0,0.0,0.0,13,1.0154206760424378,39.07685953776042,-75.876806640625,-0.45224347140000004,-9.9349994352,-0.3732803256,-0.3086741154,-9.8632147572,0.035892339,0.01466071905,-0.114842299225,0.04398215715,0.1038467599375,0.0,-0.0549776964375,0.08584,1.54164,-0.4524,0.14326,1.47146,-0.1943,-0.3804587934,-9.8991070962,-0.1686939933,0.05925373949375,-0.0574211496125,-0.005497769643750001,0.11455,1.5065499999999998,-0.32335,9.88512,2.82432,7.0608,33.52,-200.5828534949242
147342,15578854,0,-68,-1383,-56,19,-95,42,157,2626,-762,-47,-1376,4,96,0,-32,246,2563,-375,400,80,272,31.17,1.0097902788058228,35.88,1.0208536886257094,3904.611572265625,-7552.6083984375,32.5,8.135719299316406,0,0.0,0.0,0.0,0.0,21.2708412304459,0.0,0.0,-0.8623630229496113,0.0,0.0,0.0,0.0,13,1.015321983715766,39.07685953776042,-75.876806640625,-0.48813581040000004,-9.9278209674,-0.40199419680000004,-0.3373879866,-9.8775716928,0.0287138712,0.023212805162500003,-0.1160640258125,0.051312516675,0.1172857524,0.0,-0.0390952508,0.09106,1.52308,-0.44196,0.14268,1.48654,-0.2175,-0.4127618985,-9.9026963301,-0.1866401628,0.07024927878125001,-0.05803201290625,0.0061086329375000005,0.11687,1.50481,-0.32973,11.768,2.3536,8.00224,33.525000000000006,-199.7283645593465
147343,15578959,0,-63,-1384,-55,8,-95,35,157,2626,-762,-40,-1375,4,94,0,-36,246,2563,-375,384,64,304,31.16,1.0098100172711573,35.87,1.0210412040463854,3904.611572265625,-7552.6083984375,32.5,8.153444290161133,0,0.0,0.0,0.0,0.0,21.06559718793381,0.0,0.0,-1.0109250095163946,0.0,0.0,0.0,0.0,13,1.0154256106587713,39.07685953776042,-75.876806640625,-0.45224347140000004,-9.9349994352,-0.394815729,-0.287138712,-9.870393225,0.0287138712,0.0097738127,-0.1160640258125,0.0427604305625,0.114842299225,0.0,-0.04398215715,0.09106,1.52308,-0.44196,0.14268,1.48654,-0.2175,-0.36969109170000003,-9.9026963301,-0.1830509289,0.0623080559625,-0.05803201290625,-0.0006108632937499997,0.11687,1.50481,-0.32973,11.29728,1.88288,8.94368,33.515,-200.62593634020683
147344,15579065,0,-66,-1384,-55,9,-88,50,167,2638,-743,-39,-1374,4,92,0,-38,250,2555,-377,368,-16,192,31.16,1.009977794226499,35.87,1.0211300271403898,3904.611572265625,-7552.6083984375,32.5,8.14901351928711,0,0.0,0.0,0.0,0.0,20.8681529189223,0.0,0.0,-1.14254628055953,0.0,0.0,0.0,0.0,13,1.0155539106834444,39.07685953776042,-75.876806640625,-0.4737788748,-9.9349994352,-0.394815729,-0.2799602442,-9.8632147572,0.0287138712,0.0109955392875,-0.1075119397,0.061086329375000005,0.11239884605,0.0,-0.046425610325000005,0.09686,1.53004,-0.43094,0.145,1.4819,-0.21866,-0.3768695595,-9.8991070962,-0.1830509289,0.06169719266875,-0.05375596985,0.007330359525,0.12093,1.50597,-0.3248,10.82656,-0.47072,5.64864,33.515,-201.74600285569556
147345,15579170,0,-62,-1374,-52,16,-86,50,167,2638,-743,-37,-1370,2,78,0,-46,250,2555,-377,384,80,320,31.15,1.0100074019245004,35.88,1.0209622501850482,3904.611572265625,-7552.6083984375,32.5,8.162306785583496,0,0.0,0.0,0.0,0.0,21.00800554144408,0.0,0.0,-1.0797599326623517,0.0,0.0,0.0,0.0,13,1.0154848260547742,39.07685953776042,-75.876806640625,-0.4450650036,-9.8632147572,-0.3732803256,-0.26560330860000003,-9.834500886,0.0143569356,0.0195476254,-0.105068486525,0.061086329375000005,0.09529467382500001,0.0,-0.056199423025,0.09686,1.53004,-0.43094,0.145,1.4819,-0.21866,-0.3553341561,-9.8488578216,-0.179461695,0.05742114961250001,-0.0525342432625,0.0024434531750000023,0.12093,1.50597,-0.3248,11.29728,2.3536,9.4144,33.515,-201.135644019255
147346,15579276,0,-61,-1384,-50,2,-101,37,157,2668,-776,-47,-1373,5,90,0,-48,244,2553,-371,384,-48,256,31.16,1.0099284480631632,35.88,1.021011596348384,3904.611572265625,-7552.6083984375,32.5,8.14901351928711,0,0.0,0.0,0.0,0.0,20.899302938424366,0.0,0.0,-1.1531939896185357,0.0,0.0,0.0,0.0,13,1.0154700222057735,39.07685953776042,-75.876806640625,-0.43788653580000003,-9.9349994352,-0.35892339,-0.3373879866,-9.8560362894,0.035892339,0.002443453175,-0.12339438533750001,0.0452038837375,0.109955392875,0.0,-0.0586428762,0.09106,1.54744,-0.45008,0.14152,1.48074,-0.21518,-0.3876372612,-9.8955178623,-0.1615155255,0.056199423025,-0.061697192668750005,-0.00671949623125,0.11629,1.51409,-0.33263,11.29728,-1.41216,7.53152,33.52,-201.0136707340123
147347,15579381,0,-65,-1386,-56,10,-91,41,157,2668,-776,-42,-1376,4,87,0,-33,244,2553,-371,384,64,288,31.16,1.0099185788304958,35.88,1.020903034789045,3904.611572265625,-7552.6083984375,32.5,8.145689964294434,0,0.0,0.0,0.0,0.0,20.1017758711786,0.0,0.0,-1.6031009663523297,0.0,0.0,0.0,0.0,13,1.0154108068097705,39.07685953776042,-75.876806640625,-0.466600407,-9.9493563708,-0.40199419680000004,-0.3014956476,-9.8775716928,0.0287138712,0.012217265875000001,-0.1111771194625,0.0500907900875,0.1062902131125,0.0,-0.0403169773875,0.09106,1.54744,-0.45008,0.14152,1.48074,-0.21518,-0.3840480273,-9.9134640318,-0.1866401628,0.05925373949375,-0.05558855973125,0.004886906350000001,0.11629,1.51409,-0.33263,11.29728,1.88288,8.47296,33.52,-200.49668705674452
147348,15579486,0,-72,-1383,-58,13,-101,41,154,2636,-753,-43,-1368,3,89,0,-41,225,2552,-354,416,16,304,31.16,1.0099284480631632,35.88,1.0208438193930425,3904.611572265625,-7552.6083984375,32.5,8.153444290161133,0,0.0,0.0,0.0,0.0,20.67224121023709,0.0,0.0,-1.2795802113211343,0.0,0.0,0.0,0.0,13,1.0153861337281027,39.07685953776042,-75.876806640625,-0.5168496816,-9.9278209674,-0.4163511324,-0.3086741154,-9.8201439504,0.0215354034,0.0158824456375,-0.12339438533750001,0.0500907900875,0.1087336662875,0.0,-0.0500907900875,0.08932,1.52888,-0.43674,0.1305,1.48016,-0.20532,-0.4127618985,-9.8739824589,-0.1974078645,0.0623080559625,-0.061697192668750005,0.0,0.10991000000000001,1.5045199999999999,-0.32103000000000004,12.23872,0.47072,8.94368,33.52,-200.28126660009153
147349,15579592,0,-61,-1385,-49,-4,-86,42,154,2636,-753,-44,-1370,5,78,0,-42,225,2552,-354,400,32,208,31.17,1.0098889711324943,35.85,1.019146311374291,3904.611572265625,-7552.6083984375,32.5,8.166738510131836,0,0.0,0.0,0.0,0.0,21.720560318880985,0.0,0.0,-0.7044353417659712,0.0,0.0,0.0,0.0,13,1.0145176412533927,39.07685953776042,-75.876806640625,-0.43788653580000003,-9.942177903000001,-0.35174492220000003,-0.31585258320000004,-9.834500886,0.035892339,-0.00488690635,-0.105068486525,0.051312516675,0.09529467382500001,0.0,-0.051312516675,0.08932,1.52888,-0.43674,0.1305,1.48016,-0.20532,-0.3768695595,-9.8883393945,-0.15792629160000002,0.045203883737500006,-0.0525342432625,0.0,0.10991000000000001,1.5045199999999999,-0.32103000000000004,11.768,0.94144,6.11936,33.510000000000005,-192.70148390365074
147350,15579697,0,-62,-1388,-53,6,-93,43,145,2648,-759,-42,-1375,6,77,0,-33,257,2555,-403,384,160,192,31.15,1.0100074019245004,35.86,1.019294349864298,3904.611572265625,-7552.6083984375,32.5,8.158430099487305,0,0.0,0.0,0.0,0.0,23.456723102280304,0.0,0.0,0.2088036551062309,0.0,0.0,0.0,0.0,13,1.0146508758943993,39.07685953776042,-75.876806640625,-0.4450650036,-9.9637133064,-0.3804587934,-0.3014956476,-9.870393225,0.0430708068,0.007330359525,-0.1136205726375,0.0525342432625,0.09407294723750001,0.0,-0.0403169773875,0.0841,1.53584,-0.44022,0.14906,1.4819,-0.23374,-0.3732803256,-9.917053265700002,-0.1686939933,0.05070165338125,-0.05681028631875,0.0061086329375000005,0.11657999999999999,1.50887,-0.33698,11.29728,4.7072,5.64864,33.504999999999995,-193.85184853651964
147351,15579802,0,-62,-1385,-51,7,-95,48,145,2648,-759,-44,-1366,4,85,0,-40,267,2533,-358,368,80,208,31.16,1.009977794226499,35.88,1.020903034789045,3904.611572265625,-7552.6083984375,32.5,8.150120735168457,0,0.0,0.0,0.0,0.0,21.36773744971656,0.0,0.0,-1.040227463785708,0.0,0.0,0.0,0.0,13,1.015440414507772,39.07685953776042,-75.876806640625,-0.4450650036,-9.942177903000001,-0.36610185780000004,-0.31585258320000004,-9.8057870148,0.0287138712,0.008552086112500001,-0.1160640258125,0.0586428762,0.1038467599375,0.0,-0.048869063500000004,0.0841,1.53584,-0.44022,0.15486,1.4691400000000001,-0.20764,-0.3804587934,-9.8739824589,-0.1686939933,0.056199423025,-0.05803201290625,0.004886906349999998,0.11948,1.50249,-0.32393,10.82656,2.3536,6.11936,33.52,-200.75518338085706
147352,15579908,0,-68,-1388,-58,17,-93,46,165,2657,-764,-39,-1375,5,81,0,-47,267,2533,-358,368,32,336,31.16,1.0099185788304958,35.87,1.0209227732543795,3904.611572265625,-7552.6083984375,32.5,8.162860870361328,0,0.0,0.0,0.0,0.0,20.501709893134397,0.0,0.0,-1.5339758186095984,0.0,0.0,0.0,0.0,13,1.0154206760424378,39.07685953776042,-75.876806640625,-0.48813581040000004,-9.9637133064,-0.4163511324,-0.2799602442,-9.870393225,0.035892339,0.0207693519875,-0.1136205726375,0.056199423025,0.09895985358750001,0.0,-0.0574211496125,0.09570000000000001,1.54106,-0.44312,0.15486,1.4691400000000001,-0.20764,-0.3840480273,-9.917053265700002,-0.1902293967,0.059864602787500006,-0.05681028631875,-0.0006108632937499997,0.12528,1.5051,-0.32538,10.82656,0.94144,9.88512,33.515,-200.5828534949242
147353,15580013,0,-62,-1388,-51,9,-102,42,165,2657,-764,-39,-1371,4,81,0,-44,276,2572,-389,384,16,304,31.15,1.0100666173205033,35.86,1.0191167036762891,3904.611572265625,-7552.6083984375,32.5,8.154552459716797,0,0.0,0.0,0.0,0.0,23.77891416919715,0.0,0.0,0.2983612074832068,0.0,0.0,0.0,0.0,13,1.0145916604983962,39.07685953776042,-75.876806640625,-0.4450650036,-9.9637133064,-0.36610185780000004,-0.2799602442,-9.8416793538,0.0287138712,0.0109955392875,-0.12461611192500001,0.051312516675,0.09895985358750001,0.0,-0.05375596985,0.09570000000000001,1.54106,-0.44312,0.16008,1.49176,-0.22562000000000001,-0.3625126239,-9.9026963301,-0.1686939933,0.0549776964375,-0.062308055962500004,-0.0012217265874999994,0.12789,1.51641,-0.33437,11.29728,0.47072,8.94368,33.504999999999995,-193.33438503251304
147354,15580119,0,-58,-1390,-54,9,-95,47,165,2645,-731,-38,-1375,5,86,0,-46,276,2572,-389,400,96,192,31.16,1.0097606711078213,35.87,1.0209918578830497,3904.611572265625,-7552.6083984375,32.5,8.135719299316406,0,0.0,0.0,0.0,0.0,23.182501601154595,0.0,0.0,-0.1330002793256656,0.0,0.0,0.0,0.0,13,1.0153762644954356,39.07685953776042,-75.876806640625,-0.4163511324,-9.978070242000001,-0.3876372612,-0.2727817764,-9.870393225,0.035892339,0.0109955392875,-0.1160640258125,0.0574211496125,0.105068486525,0.0,-0.056199423025,0.09570000000000001,1.5341,-0.42398,0.16008,1.49176,-0.22562000000000001,-0.3445664544,-9.924231733500001,-0.17587246110000002,0.05803201290625,-0.05803201290625,0.0006108632937499997,0.12789,1.5129299999999999,-0.32480000000000003,11.768,2.82432,5.64864,33.515,-200.19509667288858
147355,15580224,0,-67,-1382,-55,5,-95,45,165,2645,-731,-43,-1373,4,76,0,-41,294,2538,-388,416,16,288,31.16,1.0099679249938318,35.87,1.0210412040463854,3904.611572265625,-7552.6083984375,32.5,8.16507625579834,0,0.0,0.0,0.0,0.0,21.78950591817254,0.0,0.0,-0.958792444946074,0.0,0.0,0.0,0.0,13,1.0155045645201086,39.07685953776042,-75.876806640625,-0.4809573426,-9.9206424996,-0.394815729,-0.3086741154,-9.8560362894,0.0287138712,0.0061086329375000005,-0.1160640258125,0.0549776964375,0.09285122065000001,0.0,-0.0500907900875,0.09570000000000001,1.5341,-0.42398,0.17052,1.47204,-0.22504,-0.394815729,-9.8883393945,-0.1830509289,0.049479926793750004,-0.05803201290625,0.002443453174999999,0.13311,1.5030700000000001,-0.32451,12.23872,0.47072,8.47296,33.515,-201.31522797517226
147356,15580329,0,-65,-1383,-50,0,-96,39,137,2649,-757,-43,-1369,4,93,0,-45,294,2538,-388,240,64,240,31.16,1.0098198865038244,35.87,1.0208832963237109,3904.611572265625,-7552.6083984375,32.5,8.157876014709473,0,0.0,0.0,0.0,0.0,21.627426457551696,0.0,0.0,-1.09008657839299,0.0,0.0,0.0,0.0,13,1.0153515914137676,39.07685953776042,-75.876806640625,-0.466600407,-9.9278209674,-0.35892339,-0.3086741154,-9.8273224182,0.0287138712,0.0,-0.1172857524,0.047647336912500005,0.1136205726375,0.0,-0.0549776964375,0.07946,1.5364200000000001,-0.43906,0.17052,1.47204,-0.22504,-0.38763726119999997,-9.8775716928,-0.1651047594,0.05681028631875,-0.0586428762,-0.0036651797624999982,0.12499,1.5042300000000002,-0.33205,7.0608,1.88288,7.0608,33.515,-199.97966749336038
147357,15580435,0,-61,-1380,-58,-6,-99,49,137,2649,-757,-42,-1371,2,82,0,-38,268,2564,-376,336,96,224,31.16,1.009977794226499,35.87,1.0210412040463854,3904.611572265625,-7552.6083984375,32.5,8.14458179473877,0,0.0,0.0,0.0,0.0,23.12691744141712,0.0,0.0,-0.2972770577146375,0.0,0.0,0.0,0.0,13,1.0155094991364422,39.07685953776042,-75.876806640625,-0.43788653580000003,-9.906285564000001,-0.4163511324,-0.3014956476,-9.8416793538,0.0143569356,-0.007330359525,-0.12095093216250001,0.059864602787500006,0.100181580175,0.0,-0.046425610325000005,0.07946,1.5364200000000001,-0.43906,0.15544,1.48712,-0.21808,-0.36969109170000003,-9.8739824589,-0.2009970984,0.046425610325000005,-0.060475466081250005,0.00671949623125,0.11745,1.51177,-0.32857000000000003,9.88512,2.82432,6.59008,33.515,-201.35830658439414
147358,15580540,0,-66,-1383,-49,8,-92,39,162,2662,-745,-45,-1371,4,91,0,-38,268,2564,-376,288,112,256,31.16,1.009859363434493,35.87,1.0208832963237109,3904.611572265625,-7552.6083984375,32.5,8.153444290161133,0,0.0,0.0,0.0,0.0,22.3325259707889,0.0,0.0,-0.7973739407226943,0.0,0.0,0.0,0.0,13,1.0153713298791018,39.07685953776042,-75.876806640625,-0.4737788748,-9.9278209674,-0.35174492220000003,-0.323031051,-9.8416793538,0.0287138712,0.0097738127,-0.11239884605,0.047647336912500005,0.1111771194625,0.0,-0.046425610325000005,0.09396,1.54396,-0.4321,0.15544,1.48712,-0.21808,-0.39840496290000005,-9.8847501606,-0.1615155255,0.06047546608125,-0.056199423025,0.0006108632937499997,0.1247,1.51554,-0.32509,8.47296,3.29504,7.53152,33.515,-200.1520113354487
147359,15580646,0,-63,-1382,-46,13,-95,52,170,2662,-748,-44,-1371,4,97,0,-44,228,2557,-392,384,-16,320,31.16,1.0099975326918331,35.85,1.0192055267702935,3904.611572265625,-7552.6083984375,32.5,8.14901351928711,0,0.0,0.0,0.0,0.0,23.87948097714357,0.0,0.0,0.0444400706348405,0.0,0.0,0.0,0.0,13,1.0146015297310633,39.07685953776042,-75.876806640625,-0.45224347140000004,-9.9206424996,-0.3302095188,-0.31585258320000004,-9.8416793538,0.0287138712,0.0158824456375,-0.1160640258125,0.06352978255,0.11850747898750001,0.0,-0.05375596985,0.09860000000000001,1.54396,-0.43384,0.13224,1.48306,-0.22736,-0.38404802730000004,-9.8811609267,-0.15074782379999999,0.06719496231250001,-0.05803201290625,0.004886906349999998,0.11542,1.5135100000000001,-0.3306,11.29728,-0.47072,9.4144,33.505,-193.42764494043902
147360,15580751,0,-65,-1384,-58,8,-90,42,170,2662,-748,-43,-1372,4,93,0,-41,228,2557,-392,368,-16,288,31.16,1.0099185788304958,35.86,1.0190772267456203,3904.611572265625,-7552.6083984375,32.5,8.173384666442871,0,0.0,0.0,0.0,0.0,24.60904793420925,0.0,0.0,0.3773841918291232,0.0,0.0,0.0,0.0,13,1.014497902788058,39.07685953776042,-75.876806640625,-0.466600407,-9.9349994352,-0.4163511324,-0.3086741154,-9.848857821600001,0.0287138712,0.0097738127,-0.109955392875,0.051312516675,0.1136205726375,0.0,-0.0500907900875,0.09860000000000001,1.54396,-0.43384,0.13224,1.48306,-0.22736,-0.38763726119999997,-9.8919286284,-0.19381863059999999,0.06169719266875,-0.0549776964375,0.0006108632937499997,0.11542,1.5135100000000001,-0.3306,10.82656,-0.47072,8.47296,33.51,-192.52197802946708
147361,15580856,0,-65,-1388,-56,16,-94,43,170,2666,-779,-46,-1377,4,85,0,-42,232,2530,-372,352,-16,288,31.16,1.009977794226499,35.85,1.0192055267702935,3904.611572265625,-7552.6083984375,32.5,8.166738510131836,0,0.0,0.0,0.0,0.0,25.63543666037597,0.0,0.0,0.8285292402167689,0.0,0.0,0.0,0.0,13,1.0145916604983962,39.07685953776042,-75.876806640625,-0.466600407,-9.9637133064,-0.40199419680000004,-0.3302095188,-9.884750160600001,0.0287138712,0.0195476254,-0.114842299225,0.0525342432625,0.1038467599375,0.0,-0.051312516675,0.09860000000000001,1.54628,-0.45182,0.13456,1.4674,-0.21576,-0.3984049629,-9.924231733500001,-0.1866401628,0.061697192668750005,-0.0574211496125,0.0006108632937499997,0.11658000000000002,1.50684,-0.33379000000000003,10.35584,-0.47072,8.47296,33.505,-193.34139569255356
147362,15580962,0,-66,-1388,-49,12,-90,46,170,2666,-779,-39,-1371,5,94,0,-40,232,2530,-372,304,48,304,31.16,1.0101554404145077,35.87,1.0209721194177153,3904.611572265625,-7552.6083984375,32.5,8.16341495513916,0,0.0,0.0,0.0,0.0,24.788480375178164,0.0,0.0,0.2299695559951401,0.0,0.0,0.0,0.0,13,1.0155637799161115,39.07685953776042,-75.876806640625,-0.4737788748,-9.9637133064,-0.35174492220000003,-0.2799602442,-9.8416793538,0.035892339,0.01466071905,-0.109955392875,0.056199423025,0.114842299225,0.0,-0.048869063500000004,0.09860000000000001,1.54628,-0.45182,0.13456,1.4674,-0.21576,-0.3768695595,-9.9026963301,-0.15792629160000002,0.0647515091375,-0.0549776964375,0.0036651797624999982,0.11658000000000002,1.50684,-0.33379000000000003,8.94368,1.41216,8.94368,33.515,-201.83215484213255
147363,15581067,0,-63,-1386,-51,8,-90,43,154,2658,-743,-38,-1374,5,95,0,-42,242,2547,-388,400,96,144,31.16,1.0101258327165064,35.85,1.019146311374291,3904.611572265625,-7552.6083984375,32.5,8.157876014709473,0,0.0,0.0,0.0,0.0,24.50234864299601,0.0,0.0,-0.0407914904621607,0.0,0.0,0.0,0.0,13,1.0146360720453986,39.07685953776042,-75.876806640625,-0.45224347140000004,-9.9493563708,-0.36610185780000004,-0.2727817764,-9.8632147572,0.035892339,0.0097738127,-0.109955392875,0.0525342432625,0.1160640258125,0.0,-0.051312516675,0.08932,1.54164,-0.43094,0.14036,1.47726,-0.22504,-0.36251262390000005,-9.906285564000001,-0.16510475940000002,0.06291891925625,-0.0549776964375,0.0006108632937499997,0.11484,1.50945,-0.32799,11.768,2.82432,4.23648,33.505,-193.72950944436718
147364,15581173,0,-63,-1386,-49,-4,-88,50,154,2658,-743,-44,-1377,5,96,0,-39,242,2547,-388,272,160,224,31.16,1.009859363434493,35.86,1.0191364421416236,3904.611572265625,-7552.6083984375,32.5,8.153444290161133,0,0.0,0.0,0.0,0.0,25.767805182706,0.0,0.0,0.5718678490005361,0.0,0.0,0.0,0.0,13,1.0144979027880583,39.07685953776042,-75.876806640625,-0.45224347140000004,-9.9493563708,-0.35174492220000003,-0.31585258320000004,-9.884750160600001,0.035892339,-0.00488690635,-0.1075119397,0.061086329375000005,0.1172857524,0.0,-0.047647336912500005,0.08932,1.54164,-0.43094,0.14036,1.47726,-0.22504,-0.38404802730000004,-9.917053265700002,-0.15792629160000002,0.056199423025,-0.05375596985,0.00671949623125,0.11484,1.50945,-0.32799,8.00224,4.7072,6.59008,33.51,-192.52197802947225
147365,15581278,0,-67,-1384,-51,9,-101,39,151,2646,-781,-40,-1377,4,90,0,-34,243,2556,-382,368,32,256,31.16,1.009977794226499,35.86,1.019225265235628,3904.611572265625,-7552.6083984375,32.5,8.153444290161133,0,0.0,0.0,0.0,0.0,26.957778600932453,0.0,0.0,1.1045645446109569,0.0,0.0,0.0,0.0,13,1.0146015297310633,39.07685953776042,-75.876806640625,-0.4809573426,-9.9349994352,-0.36610185780000004,-0.287138712,-9.884750160600001,0.0287138712,0.0109955392875,-0.12339438533750001,0.047647336912500005,0.109955392875,0.0,-0.041538703975,0.08758,1.53468,-0.45298,0.14094,1.48248,-0.22156,-0.3840480273,-9.9098747979,-0.1686939933,0.06047546608125,-0.061697192668750005,0.003054316468750002,0.11426,1.50858,-0.33727,10.82656,0.94144,7.53152,33.51,-193.42764494043902
147366,15581383,0,-62,-1386,-49,8,-91,44,151,2646,-781,-43,-1372,5,92,0,-40,293,2567,-360,384,64,320,31.16,1.0098198865038244,35.87,1.0209918578830497,3904.611572265625,-7552.6083984375,32.5,8.153444290161133,0,0.0,0.0,0.0,0.0,25.762955004414355,0.0,0.0,0.3006749183683528,0.0,0.0,0.0,0.0,13,1.015405872193437,39.07685953776042,-75.876806640625,-0.4450650036,-9.9493563708,-0.35174492220000003,-0.3086741154,-9.848857821600001,0.035892339,0.0097738127,-0.1111771194625,0.05375596985,0.11239884605,0.0,-0.048869063500000004,0.08758,1.53468,-0.45298,0.16994,1.48886,-0.2088,-0.3768695595,-9.899107096200002,-0.15792629160000002,0.061086329375,-0.05558855973125,0.002443453174999999,0.12876,1.51177,-0.33089,11.29728,1.88288,9.4144,33.515,-200.45360346384226
147367,15581489,0,-62,-1386,-50,8,-97,48,140,2657,-774,-33,-1367,5,84,0,-40,293,2567,-360,352,64,176,31.16,1.0099185788304958,35.86,1.0190673575129534,3904.611572265625,-7552.6083984375,32.5,8.167845726013184,0,0.0,0.0,0.0,0.0,25.421035968584142,0.0,0.0,0.0034215085159412,0.0,0.0,0.0,0.0,13,1.0144929681717247,39.07685953776042,-75.876806640625,-0.4450650036,-9.9493563708,-0.35892339,-0.2368894374,-9.812965482600001,0.035892339,0.0097738127,-0.11850747898750001,0.0586428762,0.10262503335,0.0,-0.048869063500000004,0.0812,1.54106,-0.44892,0.16994,1.48886,-0.2088,-0.3409772205,-9.881160926700002,-0.1615155255,0.056199423025,-0.059253739493750006,0.004886906349999998,0.12557000000000001,1.51496,-0.32886,10.35584,1.88288,5.17792,33.51,-192.47884828719697
147368,15581594,0,-62,-1385,-54,8,-93,47,140,2657,-774,-40,-1378,4,81,0,-43,249,2521,-381,352,-16,320,31.17,1.0099383172958305,35.86,1.019225265235628,3904.611572265625,-7552.6083984375,32.5,8.159537315368652,0,0.0,0.0,0.0,0.0,26.447620060503453,0.0,0.0,0.4931368088331162,0.0,0.0,0.0,0.0,13,1.0145817912657291,39.07685953776042,-75.876806640625,-0.4450650036,-9.942177903000001,-0.3876372612,-0.287138712,-9.8919286284,0.0287138712,0.0097738127,-0.1136205726375,0.0574211496125,0.09895985358750001,0.0,-0.0525342432625,0.0812,1.54106,-0.44892,0.14442,1.46218,-0.22098,-0.36610185780000004,-9.917053265700002,-0.179461695,0.05436683314375,-0.05681028631875,0.002443453174999999,0.11281,1.50162,-0.33494999999999997,10.35584,-0.47072,9.4144,33.515,-193.26215327182283
147369,15581700,0,-70,-1380,-52,10,-88,46,163,2648,-793,-40,-1376,4,91,0,-38,249,2521,-381,336,80,272,31.16,1.0098198865038244,35.86,1.0191759190722922,3904.611572265625,-7552.6083984375,32.5,8.140151023864746,0,0.0,0.0,0.0,0.0,27.28693716336861,0.0,0.0,0.8408323112662917,0.0,0.0,0.0,0.0,13,1.0144979027880583,39.07685953776042,-75.876806640625,-0.502492746,-9.906285564000001,-0.3732803256,-0.287138712,-9.8775716928,0.0287138712,0.012217265875000001,-0.1075119397,0.056199423025,0.1111771194625,0.0,-0.046425610325000005,0.09454,1.53584,-0.45994,0.14442,1.46218,-0.22098,-0.39481572900000006,-9.8919286284,-0.1722832272,0.06169719266875,-0.05375596985,0.004886906349999998,0.11948,1.4990100000000002,-0.34046,9.88512,2.3536,8.00224,33.51,-192.52197802947225
